WLMLTAID02
File version	8
Version	6	4140	6491	001
Frames	1
Measurements	3677
StartTime	19.12.2019, 15:28:59.438
EndTime	19.12.2019, 15:30:28.184

[General settings]
LTWH	0	0	1920	1040
Unit	0
Power Unit	0
StatCnt	10
RxM	1
KxM	2
KxL	2
FxMM	10000
TxMM	600
TxWM	1
TxW1	0D1663AB9E7A40044057FAA9FEB748F200000000000000000000000000000000000000000000000000000000000000000000000000000000000000000000000000000000000000000000000000000000963A3F93BE2A3BF3409E3E5875756684E9FAA7B168431EF33FC3F5342A05BB125453A2ED86971AF33FF6A008BD38B852416F98D65AA9C60440665E99DEAF624221B5009ACEAC2704

[Frame 1]
cmi	42
type	6
ver	4140
pmptype	-1
pmp	-1
Caption	WS/6-4140: Signal 1  Wavelength, vac.  [nm]
LTWH	0	12	1920	949
Docked	1
Color	14217460
LColor	-2147483640
KyM	2
yMM	-13	-13
Exp	0
ExpC	1

[Measurement data]
26	0
Time  [ms]	Signal 1  Wavelength, vac.  [nm]
33.2037	1073.36690
66.3759	1073.36686
99.3582	1073.36685
132.2704	1073.36687
165.4119	1073.36685
198.3037	1073.36684
231.5224	1073.36684
264.4955	1073.36680
297.491	1073.36683
330.5521	1073.36685
363.5681	1073.36687
396.5145	1073.36682
429.769	1073.36684
462.684	1073.36685
495.7532	1073.36686
528.8377	1073.36685
561.8553	1073.36685
594.8914	1073.36686
627.9607	1073.36691
661.0223	1073.36686
694.0093	1073.36684
727.1716	1073.36687
760.1303	1073.36688
793.1386	1073.36687
826.1515	1073.36690
859.2456	1073.36690
892.399	1073.36685
925.4226	1073.36684
958.4429	1073.36688
991.4898	1073.36688
1024.7362	1073.36685
1057.6546	1073.36685
1090.713	1073.36687
1123.7755	1073.36684
1156.6384	1073.36685
1189.775	1073.36685
1222.7649	1073.36688
1255.8541	1073.36679
1288.8976	1073.36681
1322.0319	1073.36682
1354.9816	1073.36679
1388.0057	1073.36683
1421.1363	1073.36685
1454.1422	1073.36684
1487.271	1073.36683
1520.2763	1073.36684
1553.2656	1073.36684
1586.4776	1073.36684
1619.391	1073.36679
1652.5066	1073.36686
1685.4545	1073.36682
1718.7141	1073.36684
1751.6435	1073.36679
1784.785	1073.36682
1817.7835	1073.36681
1850.7447	1073.36682
1883.7697	1073.36681
1916.8736	1073.36684
1949.871	1073.36678
1982.9401	1073.36675
2016.057	1073.36682
2049.1825	1073.36679
2082.0575	1073.36680
2115.2415	1073.36676
2148.2576	1073.36680
2181.2315	1073.36678
2214.2574	1073.36684
2247.5377	1073.36679
2280.4888	1073.36678
2313.4833	1073.36679
2346.4056	1073.36679
2379.453	1073.36679
2412.506	1073.36676
2445.5254	1073.36676
2478.7404	1073.36680
2511.8078	1073.36675
2544.8572	1073.36677
2577.9061	1073.36679
2611.4696	1073.36681
2643.877	1073.36675
2677.0537	1073.36679
2709.8953	1073.36676
2743.0564	1073.36675
2776.1073	1073.36672
2809.0506	1073.36677
2842.2999	1073.36674
2875.1773	1073.36676
2908.36	1073.36681
2941.2811	1073.36677
2974.3064	1073.36679
3007.4298	1073.36678
3040.5863	1073.36671
3073.565	1073.36675
3106.5905	1073.36679
3139.5132	1073.36675
3172.52	1073.36670
3205.6663	1073.36677
3238.7003	1073.36675
3280.5311	1073.36674
3304.9085	1073.36671
3337.7927	1073.36676
3370.9929	1073.36672
3404.052	1073.36673
3437.1773	1073.36674
3474.7637	1073.36676
3503.2723	1073.36672
3536.1816	1073.36684
3569.2396	1073.36676
3602.274	1073.36675
3635.402	1073.36671
3668.3902	1073.36672
3701.3919	1073.36674
3734.3832	1073.36679
3767.4843	1073.36677
3800.6516	1073.36677
3833.6079	1073.36677
3866.7693	1073.36674
3899.7385	1073.36680
3932.6808	1073.36676
3965.7762	1073.36679
3998.8635	1073.36674
4031.8265	1073.36677
4064.9863	1073.36679
4098.0548	1073.36672
4131.2822	1073.36676
4164.1797	1073.36672
4197.1108	1073.36675
4230.2808	1073.36673
4263.3628	1073.36673
4296.1792	1073.36674
4330.5459	1073.36676
4362.3867	1073.36674
4395.4624	1073.36674
4428.4958	1073.36673
4461.4307	1073.36675
4494.5547	1073.36669
4527.513	1073.36677
4560.6101	1073.36674
4593.6233	1073.36669
4626.687	1073.36671
4659.6571	1073.36668
4692.8947	1073.36680
4725.9106	1073.36675
4759.0181	1073.36670
4791.8947	1073.36669
4824.9855	1073.36674
4858.1789	1073.36676
4891.1622	1073.36676
4924.2573	1073.36672
4957.2383	1073.36669
4990.3614	1073.36675
5023.2977	1073.36672
5056.3298	1073.36674
5089.3502	1073.36671
5122.485	1073.36676
5155.5335	1073.36670
5188.6244	1073.36668
5221.509	1073.36672
5254.6351	1073.36670
5287.6273	1073.36670
5320.852	1073.36672
5353.8648	1073.36672
5386.817	1073.36674
5419.9552	1073.36673
5452.8789	1073.36666
5485.978	1073.36673
5519.1747	1073.36669
5552.163	1073.36674
5585.0486	1073.36673
5618.1818	1073.36672
5651.2438	1073.36668
5684.2656	1073.36673
5717.3933	1073.36673
5750.3587	1073.36675
5786.8648	1073.36672
5816.5107	1073.36671
5849.3944	1073.36673
5882.53	1073.36672
5915.6379	1073.36673
5948.7678	1073.36667
5981.8613	1073.36673
6014.8688	1073.36671
6047.8839	1073.36669
6080.7451	1073.36671
6113.8445	1073.36664
6146.8023	1073.36667
6179.9497	1073.36671
6212.9199	1073.36668
6246.0102	1073.36668
6279.0178	1073.36665
6312.025	1073.36673
6345.2038	1073.36671
6378.3756	1073.36676
6411.2558	1073.36673
6444.4446	1073.36670
6477.4118	1073.36668
6510.3737	1073.36676
6543.3713	1073.36673
6576.3732	1073.36677
6609.4461	1073.36672
6642.5725	1073.36669
6675.6083	1073.36670
6708.6737	1073.36670
6741.7234	1073.36673
6774.8041	1073.36672
6807.7337	1073.36670
6840.8863	1073.36667
6874.0193	1073.36668
6907.0438	1073.36675
6940.1376	1073.36668
6973.2317	1073.36667
7006.1381	1073.36675
7039.205	1073.36669
7072.2509	1073.36677
7108.5083	1073.36676
7138.3467	1073.36677
7171.3186	1073.36676
7204.2809	1073.36674
7237.4932	1073.36672
7270.618	1073.36675
7303.6558	1073.36673
7336.6616	1073.36675
7369.8859	1073.36676
7402.9056	1073.36678
7435.8868	1073.36676
7468.9502	1073.36672
7501.7957	1073.36675
7535.0374	1073.36677
7567.9613	1073.36676
7600.9001	1073.36675
7634.0556	1073.36673
7666.9971	1073.36673
7700.0128	1073.36673
7733.3027	1073.36672
7766.524	1073.36675
7799.3814	1073.36670
7832.3688	1073.36679
7865.3156	1073.36677
7898.494	1073.36669
7931.5282	1073.36676
7964.7361	1073.36674
7997.5511	1073.36677
8030.5503	1073.36676
8063.7611	1073.36676
8096.8582	1073.36676
8129.8847	1073.36679
8162.8195	1073.36674
8195.7895	1073.36674
8228.8493	1073.36674
8262.0163	1073.36675
8295.0422	1073.36679
8328.3636	1073.36680
8361.2192	1073.36670
8394.0872	1073.36678
8427.1351	1073.36672
8460.1448	1073.36676
8493.169	1073.36674
8526.3284	1073.36678
8559.4817	1073.36674
8592.4818	1073.36678
8625.5239	1073.36677
8658.4767	1073.36672
8691.7046	1073.36674
8724.6689	1073.36678
8757.7662	1073.36678
8790.7818	1073.36671
8823.7769	1073.36679
8856.9762	1073.36679
8889.9215	1073.36678
8923.0493	1073.36680
8956.0495	1073.36674
8989.1059	1073.36672
9022.1203	1073.36676
9055.1414	1073.36673
9088.2626	1073.36680
9121.3864	1073.36677
9154.2028	1073.36673
9187.3533	1073.36670
9220.263	1073.36675
9253.4411	1073.36683
9286.5787	1073.36679
9319.3931	1073.36680
9352.5748	1073.36674
9385.5107	1073.36671
9418.7304	1073.36677
9451.8137	1073.36680
9484.6532	1073.36674
9517.7837	1073.36678
9550.8625	1073.36675
9583.7705	1073.36671
9616.9259	1073.36672
9649.9244	1073.36673
9683.0819	1073.36676
9715.9665	1073.36679
9749.174	1073.36671
9782.1748	1073.36671
9815.1488	1073.36672
9848.1735	1073.36672
9881.4232	1073.36674
9914.4007	1073.36670
9947.4804	1073.36674
9980.394	1073.36675
10013.5116	1073.36673
10046.5478	1073.36680
10079.7319	1073.36675
10112.5471	1073.36673
10145.7461	1073.36672
10178.8535	1073.36671
10211.7329	1073.36678
10244.9036	1073.36674
10277.8641	1073.36678
10311.0501	1073.36675
10343.8904	1073.36671
10376.9281	1073.36670
10410.1033	1073.36678
10443.1481	1073.36675
10476.1397	1073.36677
10509.1724	1073.36673
10542.3643	1073.36667
10575.4072	1073.36670
10612.3654	1073.36671
10641.4227	1073.36673
10674.4236	1073.36670
10707.4228	1073.36674
10740.5424	1073.36668
10773.542	1073.36672
10806.6419	1073.36673
10839.7226	1073.36670
10872.6673	1073.36675
10905.8721	1073.36672
10938.88	1073.36676
10971.9155	1073.36675
11004.9245	1073.36673
11037.9738	1073.36674
11071.04	1073.36673
11104.0522	1073.36668
11137.198	1073.36669
11170.2	1073.36674
11203.3495	1073.36676
11236.3905	1073.36675
11269.4789	1073.36674
11302.3481	1073.36670
11335.4479	1073.36674
11368.4663	1073.36672
11401.374	1073.36668
11434.4122	1073.36672
11467.632	1073.36669
11500.6692	1073.36672
11533.6392	1073.36668
11566.7597	1073.36673
11599.9219	1073.36668
11632.9209	1073.36671
11665.7747	1073.36674
11699.0463	1073.36671
11732.0463	1073.36666
11765.0629	1073.36672
11798.1028	1073.36674
11831.2319	1073.36667
11864.3631	1073.36645
11897.3812	1073.35719
11930.2457	1073.33950
11963.3522	1073.23666
11996.2541	1073.19921
12033.2966	1073.16360
12070.5082	1073.18844
12107.471	1073.01216
12144.6327	1073.00906
12181.4401	1072.84425
12218.5189	1072.79985
12255.5342	1072.66601
12292.6274	-4
12329.7694	-4
12366.8521	-4
12391.2766	1072.14014
12412.0208	1074.10337
12435.8988	1071.99711
12469.2141	1071.78495
12489.0089	1071.62107
12509.7628	1071.63783
12529.5228	1071.44961
12549.6489	1071.26039
12569.5216	1071.24730
12589.8901	1071.07934
12610.8881	1070.91587
12631.2508	1070.93286
12653.0236	1070.77655
12674.3859	1070.59566
12695.5196	1070.44656
12717.274	1070.46364
12737.437	1062.71922
12757.6714	1070.24351
12780.0223	1070.24066
12801.0466	1070.22836
12821.7722	1070.08912
12843.7607	1070.06244
12862.6708	-3
12881.6546	1070.07960
12901.5891	1070.06027
12920.8547	1070.08962
12939.9312	1070.08250
12961.2613	1070.01901
12981.7719	1069.93256
13005.0561	-4
13026.6135	-4
13047.1263	-4
13066.4726	1069.90931
13085.8945	1069.90576
13104.7733	1069.90251
13122.9782	1069.89994
13142.4196	1069.89794
13163.0082	1069.89613
13182.3615	1069.89436
13201.0879	1069.89343
13220.0196	1069.89257
13239.1492	1069.89204
13257.9618	1069.89114
13277.0504	1069.89092
13296.1473	1069.89092
13315.462	1069.89109
13334.4194	1069.89112
13353.8822	1069.89113
13373.0652	1069.89148
13396.1974	1069.89145
13415.5187	1069.89185
13435.0455	1069.89183
13454.5221	1069.89184
13474.7109	1069.89216
13497.7617	1069.89216
13517.3081	1069.89250
13537.1716	1069.89288
13556.4635	1069.89283
13577.1525	1069.89328
13597.1479	1069.89327
13617.5294	1069.89369
13637.8735	1069.89368
13664.1475	1069.89425
13683.7745	1069.89422
13705.0121	1069.89423
13724.6376	1069.89424
13747.7484	1069.89443
13767.5238	1069.89444
13787.1764	1069.89444
13806.1705	1069.89450
13829.4592	1069.89466
13849.9338	1069.89467
13869.2942	1069.89468
13888.6703	1069.89525
13907.6817	1069.89525
13927.2631	1069.89526
13946.3891	1069.89527
13965.7712	1069.89527
13985.3622	1069.89526
14004.5187	1069.89527
14023.8533	1069.89527
14043.019	1069.89501
14061.9199	1069.89501
14081.2484	1069.89501
14104.3874	1069.89501
14124.4016	1069.89528
14143.7598	1069.89531
14162.8876	1069.89525
14182.0085	1069.89529
14201.1219	1069.89531
14220.0954	1069.89531
14239.0184	1069.89531
14260.4865	1069.89527
14280.0255	1069.89529
14300.2946	1069.89515
14321.1463	1069.89505
14354.3878	1069.89505
14374.2757	1069.89505
14393.6686	1069.89533
14413.2761	1069.89524
14432.4195	1069.89533
14451.4617	1069.89531
14470.8871	1069.89534
14490.2946	1069.89531
14509.8019	1069.89531
14545.0203	1069.89532
14564.7758	1069.89532
14585.3463	1069.89508
14625.1524	1069.89507
14645.2771	1069.89508
14664.419	1069.89508
14683.9613	1069.89508
14702.9627	1069.89508
14722.2698	1069.89508
14743.6795	1069.89509
14763.0206	1069.89509
14782.1463	1069.89509
14801.5236	1069.89509
14820.7685	1069.89509
14841.6442	1069.89509
14860.5007	1069.89509
14879.5182	1069.89509
14899.387	1069.89509
14921.2487	1069.89509
14940.3867	1069.89509
14959.6379	1069.89509
14993.71	1069.89509
15013.383	1069.89510
15033.0856	1069.89510
15052.248	1069.89510
15071.6459	1069.89510
15090.6683	1069.89510
15109.5644	1069.89510
15128.7697	1069.89510
15152.5425	1069.89510
15172.1685	1069.89510
15191.2591	1069.89511
15210.3345	1069.89510
15229.3998	1069.89511
15248.6466	1069.89511
15267.5185	1069.89511
15286.7101	1069.89511
15305.9291	1069.89511
15325.3945	1069.89511
15344.9449	1069.89511
15364.1365	1069.89511
15384.2706	1069.89511
15404.2697	1069.89511
15424.0236	1069.89511
15443.4403	1069.89512
15462.334	1069.89512
15481.5543	1069.89512
15501.7936	1069.89512
15521.5236	1069.89512
15540.5131	1069.89512
15562.5173	1069.89512
15581.8844	1069.89512
15600.8326	1069.89512
15619.8853	1069.89512
15639.616	1069.89513
15659.7927	1069.89513
15680.3983	1069.89513
15700.9948	1069.89513
15721.5227	1069.89513
15743.208	1069.89513
15761.8938	1069.89513
15783.6375	1069.89513
15803.6157	1069.89513
15822.8939	1069.89513
15841.9571	1069.89513
15863.987	1069.89514
15883.0437	1069.89513
15902.2724	1069.89513
15925.5448	1069.89514
15945.2573	1069.89514
15964.2932	1069.89514
15998.3745	1069.89514
16018.8495	1069.89514
16039.2689	1069.89514
16074.5062	1069.89514
16094.0411	1069.89514
16113.3326	1069.89514
16137.8805	1069.89514
16157.5192	1069.89514
16180.3854	1069.89515
16199.8818	1069.89515
16219.1157	1069.89515
16237.9755	1069.89515
16270.7763	1069.89515
16294.4745	1069.89515
16313.7688	1069.89515
16334.143	1069.89515
16353.8814	1069.89515
16373.4981	1069.89515
16393.1891	1069.89515
16412.5034	1069.89515
16436.9382	1069.89515
16456.1672	1069.89515
16475.34	1069.89515
16494.6783	1069.89516
16513.8856	1069.89516
16533.5408	1069.89516
16554.0032	1069.89516
16573.667	1069.89516
16595.043	1069.89516
16615.4162	1069.89516
16634.8337	1069.89516
16653.9584	1069.89516
16673.2379	1069.89516
16692.3626	1069.89516
16712.2701	1069.89517
16731.2661	1069.89516
16751.1673	1069.89516
16770.7682	1069.89517
16791.1885	1069.89517
16810.664	1069.89517
16833.5071	1069.89517
16861.4977	1069.89517
16881.085	1069.89517
16899.933	1069.89517
16919.2105	1069.89517
16938.2461	1069.89517
16957.5843	1069.89517
16976.9982	1069.89517
16996.3021	1069.89517
17016.0163	1069.89517
17034.9764	1069.89517
17054.2691	1069.89517
17073.6462	1069.89518
17093.1225	1069.89518
17112.3818	1069.89518
17131.8017	1069.89517
17151.169	1069.89518
17170.3575	1069.89518
17189.9739	1069.89518
17221.2462	1069.89518
17240.88	1069.89518
17260.6498	1069.89518
17279.9172	1069.89518
17299.4821	1069.89518
17318.6158	1069.89518
17338.1334	1069.89518
17358.4156	1069.89519
17377.7691	1069.89518
17397.0416	1069.89518
17416.6335	1069.89518
17436.0183	1069.89519
17455.5626	1069.89519
17475.1438	1069.89519
17495.2681	1069.89519
17514.8979	1069.89519
17534.8983	1069.89519
17555.132	1069.89519
17574.5473	1069.89519
17593.7681	1069.89519
17613.7579	1069.89519
17634.0222	1069.89519
17653.2697	1069.89519
17672.8835	1069.89519
17692.384	1069.89519
17711.8913	1069.89519
17731.3848	1069.89519
17751.6552	1069.89519
17772.6072	1069.89519
17792.3493	1069.89519
17811.5984	1069.89519
17830.8828	1069.89519
17850.8911	1069.89520
17870.6282	1069.89519
17890.2914	1069.89520
17909.4543	1069.89520
17928.6661	1069.89520
17952.7909	1069.89520
17972.2905	1069.89520
17993.5156	1069.89520
18014.2093	1069.89520
18034.1673	1069.89520
18054.8976	1069.89520
18074.6027	1069.89520
18093.9494	1069.89520
18113.3151	1069.89520
18132.9215	1069.89520
18152.8859	1069.89520
18172.1505	1069.89520
18193.5406	1069.89521
18212.8932	1069.89520
18231.9414	1069.89521
18252.5158	1069.89521
18271.541	1069.89520
18290.6664	1069.89521
18309.8828	1069.89521
18333.6554	1069.89521
18360.351	1069.89521
18379.8384	1069.89521
18399.0883	1069.89521
18418.0039	1069.89521
18437.4151	1069.89521
18456.8008	1069.89521
18476.1408	1069.89521
18495.3957	1069.89521
18514.8802	1069.89521
18535.142	1069.89521
18555.2502	1069.89521
18575.2569	1069.89521
18596.0211	1069.89521
18615.366	1069.89521
18634.6216	1069.89521
18653.7342	1069.89521
18672.8512	1069.89521
18695.7069	1069.89521
18715.141	1069.89521
18735.3938	1069.89521
18754.5497	1069.89522
18773.5136	1069.89522
18792.6198	1069.89522
18811.428	1069.89522
18830.3573	1069.89522
18850.3842	1069.89521
18870.564	1069.89522
18890.3826	1069.89522
18909.6327	1069.89522
18928.3825	1069.89522
18947.2922	1069.89522
18967.5253	1069.89522
18987.471	1069.89522
19007.0815	1069.89522
19026.2663	1069.89522
19045.5398	1069.89522
19064.6194	1069.89522
19084.5401	1069.89522
19104.1486	1069.89522
19123.0143	1069.89522
19142.1415	1069.89522
19161.3891	1069.89523
19180.6419	1069.89523
19200.8923	1069.89522
19221.253	1069.89522
19241.1707	1069.89523
19260.4146	1069.89522
19279.3857	1069.89523
19298.3806	1069.89522
19317.3894	1069.89523
19336.6385	1069.89523
19355.8904	1069.89523
19375.0633	1069.89522
19393.8822	1069.89523
19412.7196	1069.89523
19431.7445	1069.89523
19450.7652	1069.89523
19469.9143	1069.89523
19488.8814	1069.89523
19510.039	1069.89523
19529.4708	1069.89523
19548.6641	1069.89523
19567.7239	1069.89523
19587.3796	1069.89523
19606.6132	1069.89523
19625.6645	1069.89523
19644.7655	1069.89523
19664.1398	1069.89523
19683.9248	1069.89523
19703.6607	1069.89523
19724.0128	1069.89523
19743.0143	1069.89523
19762.0876	1069.89523
19793.5126	1069.89523
19835.0811	1069.89523
19866.0953	1069.89523
19886.6742	1069.89523
19906.7658	1069.89523
19925.9794	1069.89523
19945.1639	1069.89524
19965.2548	1069.89523
19984.3105	1069.89523
20003.1632	1069.89524
20023.139	1069.89523
20044.2369	1069.89524
20063.8778	1069.89524
20083.7067	1069.89523
20105.1304	1069.89524
20124.2985	1069.89524
20144.8713	1069.89524
20164.1318	1069.89524
20184.1144	1069.89523
20205.3804	1069.89524
20227.6137	1069.89524
20247.184	1069.89524
20267.0302	1069.89524
20286.9574	1069.89524
20306.0125	1069.89524
20325.3045	1069.89524
20344.501	1069.89524
20364.0052	1069.89524
20384.247	1069.89524
20404.1896	1069.89524
20423.6627	1069.89524
20443.1634	1069.89524
20462.5385	1069.89524
20481.5808	1069.89524
20500.7551	1069.89524
20519.9807	1069.89524
20539.3845	1069.89524
20559.012	1069.89524
20578.5096	1069.89524
20598.0392	1069.89524
20618.2659	1069.89524
20638.1223	1069.89524
20657.7634	1069.89525
20676.9141	1069.89525
20697.3281	1069.89525
20717.4022	1069.89524
20737.2841	1069.89525
20756.7651	1069.89525
20776.0115	1069.89525
20795.4131	1069.89525
20814.7641	1069.89525
20835.4212	1069.89525
20858.512	1069.89525
20878.3801	1069.89525
20897.4135	1069.89525
20917.5476	1069.89525
20937.1221	1069.89525
20956.4125	1069.89525
20975.9703	1069.89525
20997.8788	1069.89525
21018.2874	1069.89525
21038.0802	1069.89525
21060.1397	1069.89525
21079.3288	1069.89525
21098.4132	1069.89525
21117.6411	1069.89525
21136.8524	1069.89525
21160.2537	1069.89525
21179.3788	1069.89525
21198.9926	1069.89526
21217.954	1069.89525
21237.0124	1069.89525
21260.6633	1069.89525
21279.7866	1069.89525
21299.1721	1069.89525
21318.2038	1069.89525
21337.9512	1069.89525
21359.8813	1069.89525
21378.6387	1069.89525
21406.2633	1069.89526
21426.9003	1069.89525
21450.1675	1069.89526
21472.4121	1069.89525
21492.038	1069.89525
21511.9329	1069.89525
21531.7637	1069.89526
21550.5478	1069.89526
21569.4519	1069.89526
21594.327	1069.89526
21613.8468	1069.89526
21633.884	1069.89526
21652.8277	1069.89526
21673.7543	1069.89526
21705.3785	1069.89526
21725.2631	1069.89526
21744.7531	1069.89526
21763.7872	1069.89526
21784.1646	1069.89526
21803.143	1069.89526
21822.5789	1069.89526
21842.4802	1069.89526
21862.2609	1069.89526
21881.3873	1069.89526
21903.2962	1069.89526
21924.0109	1069.89526
21942.9198	1069.89526
21963.4618	1069.89526
21982.5171	1069.89526
22002.7645	1069.89526
22025.1238	1069.89526
22044.9506	1069.89526
22064.5007	1069.89526
22085.2629	1069.89526
22104.8128	1069.89526
22124.2524	1069.89526
22143.5161	1069.89526
22164.13	1069.89526
22184.4128	1069.89526
22203.5021	1069.89526
22223.0098	1069.89526
22242.5016	1069.89526
22261.9684	1069.89526
22281.4506	1069.89527
22302.5364	1069.89526
22322.1373	1069.89527
22344.3509	1069.89526
22364.0316	1069.89527
22384.6128	1069.89527
22404.8047	1069.89527
22424.3505	1069.89527
22443.5102	1069.89527
22462.8261	1069.89526
22481.9542	1069.89526
22501.2112	1069.89527
22520.6603	1069.89527
22540.8809	1069.89527
22560.2623	1069.89527
22580.1617	1069.89527
22600.2804	1069.89527
22620.0129	1069.89527
22641.0105	1069.89527
22660.0351	1069.89527
22679.139	1069.89527
22698.2643	1069.89526
22717.7867	1069.89527
22737.2534	1069.89527
22756.9504	1069.89527
22775.876	1069.89527
22795.325	1069.89527
22814.6432	1069.89527
22835.3746	1069.89527
22855.6599	1069.89527
22889.5124	1069.89527
22909.4106	1069.89527
22929.9988	1069.89527
22952.6814	1069.89527
22972.6372	1069.89527
22992.2019	1069.89527
23012.762	1069.89527
23031.9778	1069.89527
23051.9102	1069.89527
23071.9541	1069.89527
23091.825	1069.89527
23111.5458	1069.89527
23132.0095	1069.89528
23151.7514	1069.89527
23171.9318	1069.89527
23191.7615	1069.89527
23211.6702	1069.89527
23230.8758	1069.89527
23254.0354	1069.89528
23274.307	1069.89527
23293.555	1069.89528
23312.8796	1069.89528
23332.077	1069.89528
23351.5099	1069.89528
23371.643	1069.89528
23391.3932	1069.89528
23411.5027	1069.89528
23430.657	1069.89528
23450.4794	1069.89528
23470.2964	1069.89489
23490.627	1069.89155
23509.8915	1069.88341
23530.3777	1070.42470
23552.5012	1069.92295
23571.637	1069.90829
23593.0448	1069.88458
23612.803	1069.86863
23633.4748	1069.75918
23668.4753	1069.73134
23690.0113	1069.74411
23713.1593	1069.70254
23736.0352	1069.56588
23756.9484	1069.52700
23778.6712	1069.53703
23799.2835	1069.39733
23819.7638	1069.40596
23839.4985	1069.39558
23875.5079	1069.20515
23896.4289	1069.06792
23917.2657	1069.06475
23937.7055	1068.90453
23958.3768	1068.89170
23981.7604	1068.74040
24003.2609	1068.70083
24023.2943	1068.52069
24044.3764	1068.52349
24065.0128	1068.46681
24086.0905	1068.17826
24108.6262	1068.18055
24128.8744	1067.98555
24154.0072	1067.82526
24176.2599	1067.67321
24197.7841	1067.69665
24219.0547	1067.56112
24237.4482	1067.45320
24255.8773	1067.31108
24278.0451	1067.16582
24297.6367	1066.99388
24320.6589	1066.81057
24342.3835	1066.68026
24362.7448	1066.47576
24383.3523	1066.40470
24410.7305	1066.23941
24434.2596	1066.01759
24455.9656	1065.86514
24477.409	1065.59481
24498.4186	-4
24524.7595	1065.54344
24545.9082	1065.43115
24581.2893	1065.38534
24602.8546	-3
24621.5527	1065.24380
24640.2648	1065.22002
24660.4763	1065.20256
24683.5191	1065.17611
24704.6419	1065.08288
24726.076	1065.06615
24746.2371	1065.09364
24765.6583	-4
24786.2941	-4
24806.4995	-4
24827.376	-3
24847.2513	1064.92139
24866.8868	1064.91569
24887.4217	1064.91083
24908.5434	1064.90661
24928.0328	1064.90930
24950.7838	1064.90778
24970.7604	-3
24994.1314	-3
25013.2501	1065.03850
25031.4746	1065.03033
25052.0133	1065.03611
25071.8754	1065.03525
25094.4289	-4
25115.033	1065.02705
25151.3898	1065.02703
25172.749	1065.03312
25192.3749	1065.03316
25211.3239	1065.03318
25229.517	1065.03318
25248.7938	1065.02744
25270.633	1065.02742
25294.5751	1065.02735
25314.9491	1065.02744
25336.0341	1065.02709
25356.8603	1065.02710
25377.374	1065.02708
25397.8713	1065.02709
25419.0697	1065.02708
25441.3241	1065.02711
25461.9083	1065.02771
25482.3757	1065.02771
25502.6693	1065.02774
25523.2819	-4
25543.9984	-4
25563.9467	-4
25587.4459	1065.03459
25607.8793	1065.03499
25627.9975	1065.03500
25646.2015	1065.03499
25665.0534	1065.03500
25684.0345	1065.03500
25703.1786	1065.03500
25722.5065	1065.03516
25741.6682	1065.03539
25761.7489	1065.03539
25781.3821	1065.03540
25801.2364	1065.03539
25822.1322	1065.03540
25841.5091	1065.03540
25861.6346	1065.03540
25880.6326	1065.03541
25900.6414	1065.03541
25920.6576	1065.03519
25939.878	1065.03523
25959.0327	1065.03523
25978.4881	1065.03523
25997.6352	1065.03523
26018.4887	1065.03523
26041.0741	1065.03523
26061.4652	1065.03523
26080.7366	1065.03523
26102.8747	1065.03523
26122.5066	1065.03501
26142.1987	1065.03501
26161.6342	1065.03501
26180.7161	1065.03501
26201.008	1065.03501
26221.1782	1065.03502
26240.6341	1065.03523
26259.6339	1065.03523
26278.7059	1065.03523
26297.7579	1065.03523
26317.698	1065.03523
26349.746	1065.03523
26371.2302	1065.03523
26390.8509	1065.03524
26410.0304	1065.03524
26429.2564	1065.03505
26448.6369	1065.03505
26467.748	1065.03505
26486.9961	1065.03505
26506.8748	1065.03505
26526.006	1065.03505
26546.4457	1065.03505
26565.6358	1065.03505
26586.4965	1065.03505
26607.6668	1065.03505
26627.5871	1065.03505
26647.0588	1065.03505
26667.0026	1065.03506
26686.0165	1065.03506
26705.9067	1065.03506
26726.0126	1065.03506
26745.5253	1065.03506
26765.7567	1065.03506
26785.0144	1065.03506
26804.4069	1065.03506
26824.1563	1065.03506
26843.073	1065.03507
26862.1436	1065.03507
26881.3215	1065.03507
26901.1328	1065.03507
26920.2809	1065.03507
26939.9722	1065.03507
26958.8716	1065.03507
26984.5047	1065.03507
27004.1557	1065.03507
27027.4959	1065.03508
27046.9731	1065.03508
27067.6238	1065.03508
27087.2628	1065.03508
27107.6111	1065.03508
27126.6315	1065.03508
27145.666	1065.03508
27164.6311	1065.03509
27183.9168	1065.03509
27203.3736	1065.03508
27223.0045	1065.03509
27242.0056	1065.03509
27261.6327	1065.03509
27280.9984	1065.03509
27300.4492	1065.03509
27319.8713	1065.03509
27339.8143	1065.03509
27359.0115	1065.03509
27378.2572	1065.03509
27397.2405	1065.03510
27419.2905	1065.03510
27439.0063	1065.03510
27458.6401	1065.03510
27478.2798	1065.03510
27497.2132	1065.03510
27520.8619	1065.03510
27554.3699	1065.03511
27574.3523	1065.03511
27594.3696	1065.03511
27613.6542	1065.03511
27634.0136	1065.03511
27667.9696	1065.03511
27688.4864	1065.03511
27708.2906	1065.03511
27728.3411	1065.03512
27747.7532	1065.03512
27768.6539	1065.03512
27788.7348	1065.03512
27813.7331	1065.03512
27833.5108	1065.03512
27853.0185	1065.03512
27884.7797	1065.03512
27904.9947	1065.03512
27924.7531	1065.03513
27944.8716	1065.03513
27964.4955	1065.03513
27985.873	1065.03513
28008.0282	1065.03513
28027.154	1065.03513
28046.2272	1065.03513
28065.4708	1065.03513
28085.343	1065.03513
28105.469	1065.03513
28125.6281	1065.03513
28145.0046	1065.03514
28164.2531	1065.03514
28184.3141	1065.03514
28204.0024	1065.03514
28224.0045	1065.03514
28243.2185	1065.03514
28262.2899	1065.03514
28281.5025	1065.03514
28301.2582	1065.03514
28320.8683	1065.03514
28341.1031	1065.03514
28360.4584	1065.03515
28379.849	1065.03515
28399.4971	1065.03514
28419.3941	1065.03515
28439.3425	1065.03515
28458.7542	1065.03515
28478.3443	1065.03515
28497.4922	1065.03515
28518.1857	1065.03515
28538.6629	1065.03515
28561.0389	1065.03515
28585.2399	1065.03515
28616.2784	1065.03515
28637.7778	1065.03516
28657.754	1065.03516
28680.3846	1065.03516
28700.7463	1065.03516
28721.1274	1065.03516
28741.368	1065.03516
28761.6025	1065.03516
28780.7877	1065.03516
28801.3708	1065.03516
28821.1525	1065.03516
28841.3781	1065.03516
28864.0018	1065.03517
28883.9878	1065.03517
28903.7313	1065.03517
28924.0084	1065.03517
28946.4945	1065.03517
28966.2442	1065.03517
28987.7576	1065.03517
29007.6663	1065.03517
29028.2431	1065.03517
29047.7881	1065.03517
29067.8425	1065.03517
29088.0049	1065.03518
29108.2536	1065.03518
29127.7452	1065.03517
29147.03	1065.03518
29166.9944	1065.03518
29194.1807	1065.03518
29216.7567	1065.03518
29236.634	1065.03518
29255.5832	1065.03518
29277.8686	1065.03518
29300.3785	1065.03518
29321.1276	1065.03518
29340.4588	1065.03518
29363.1217	1065.03518
29385.3698	1065.03518
29405.8588	1065.03518
29428.1116	1065.03519
29450.5284	1065.03519
29470.6042	1065.03519
29492.0261	1065.03519
29511.4589	1065.03519
29533.9921	1065.03519
29554.4598	1065.03519
29573.5365	1065.03519
29596.7456	1065.03519
29618.1072	1065.03519
29638.3838	1065.03519
29657.4936	1065.03306
29680.2471	1065.02805
29699.9816	1065.01835
29722.6158	1065.00542
29745.1309	1064.92072
29763.8449	-3
29782.6181	1064.92906
29801.2395	1064.91144
29820.7307	1064.74710
29841.6011	1064.85808
29861.1275	1064.75458
29879.6194	1064.76768
29899.5269	1064.72771
29918.0011	-3
29935.9279	1064.64411
29970.6192	1064.58569
29990.1185	1064.49709
30009.0265	1064.37401
30032.2506	1064.37544
30053.242	1064.31013
30074.5925	1064.20805
30095.0031	1064.15453
30116.1306	1064.04935
30136.7514	1063.99056
30158.3403	-4
30179.2859	1063.71775
30199.6011	1063.68874
30221.1006	-3
30239.8443	1063.48957
30258.5512	1063.37901
30277.2439	1063.29483
30311.4921	1063.16863
30332.0103	1062.98470
30354.5019	1062.85307
30390.2304	1062.66537
30410.8578	1062.48507
30434.1251	-4
30455.1618	1062.17296
30475.8664	1062.01699
30496.1507	-3
30514.7438	1061.72937
30533.1186	1061.58895
30553.9585	1061.44224
30573.5003	1061.28006
30594.6362	1061.11223
30614.4684	1060.95683
30637.1281	1060.81770
30656.7422	1060.64724
30677.026	1060.61131
30696.9402	1060.52366
30717.1314	-4
30738.3686	1060.40558
30759.782	1060.28112
30779.5259	1060.28038
30798.2759	1060.24950
30817.1299	1060.21888
30837.2522	-3
30856.0255	1060.11355
30874.4673	1060.12984
30892.6501	-4
30914	-4
30933.603	-4
30954.2525	1060.07904
30973.0579	1060.06891
30992.1264	1060.06851
31011.0003	1060.06141
31031.3661	1060.05558
31050.3122	1060.05010
31070.5987	1060.04578
31089.9894	1060.04194
31108.942	1060.04660
31131.7858	1060.03710
31150.9595	-3
31168.8683	1059.97526
31189.3778	1059.97316
31209.1502	1059.97033
31228.3431	1059.96944
31248.6812	1059.96860
31270.6854	1059.96781
31290.7405	1059.96749
31310.8298	1059.96712
31331.0055	1059.96715
31351.4916	1059.96665
31372.0845	1059.96650
31392.3215	1059.96656
31412.5259	1059.96663
31433.8692	1059.96700
31454.1177	1059.96696
31474.4096	1059.96738
31494.368	1059.96729
31514.6272	1059.96736
31534.5203	1059.96782
31554.9575	1059.96778
31575.0329	1059.96818
31595.7412	1059.96824
31616.1183	1059.96822
31637.2753	1059.96856
31657.2744	1059.96864
31678.7521	1059.96861
31699.1168	1059.96901
31720.6513	1059.96908
31740.7959	1059.96914
31760.993	1059.96912
31781.1243	1059.96983
31801.2515	1059.96985
31821.8289	1059.96989
31842.2813	1059.96984
31862.3423	1059.96987
31882.4407	1059.96947
31903.9005	1059.96949
31932.125	1059.96955
31953.9888	1059.96950
31974.0002	1059.96998
31993.9882	1059.96999
32014.1845	1059.96998
32034.2121	1059.96997
32054.2427	1059.96997
32074.0987	1059.96997
32094.1496	1059.96997
32114.2744	1059.97003
32134.4996	1059.96995
32154.3675	1059.96959
32174.4618	1059.96963
32194.6492	1059.96966
32214.748	1059.96965
32237.4667	1059.96967
32257.5902	1059.97005
32277.8556	1059.97011
32302.2115	1059.97010
32322.2473	1059.97009
32342.6273	1059.97011
32363.6744	1059.97009
32384.4	1059.97011
32404.728	1059.97010
32425.0011	1059.97011
32444.92	1059.96969
32465.4666	1059.96971
32487.8686	1059.96973
32507.7406	1059.96977
32528.0031	1059.96974
32548.0664	1059.96973
32570.8672	1059.96965
32591.8674	1059.96973
32612.0021	1059.96973
32633.4992	1059.96971
32653.8652	1059.96942
32674.5984	1059.96948
32694.6268	1059.96943
32714.5987	1059.96975
32734.4672	1059.96971
32754.2288	1059.96977
32773.9126	1059.96969
32793.6913	1059.96977
32813.8412	1059.96978
32835.0288	1059.96974
32863.1077	1059.96976
32883.2493	1059.96971
32904.1765	1059.96970
32927.8648	1059.96979
32947.8701	1059.96974
32967.6268	1059.96976
32988.2527	1059.96973
33008.4201	1059.96975
33036.1494	1059.96981
33056.228	1059.96979
33076.3761	1059.96982
33096.4984	1059.96976
33118.5437	1059.96982
33138.5275	1059.96976
33158.5799	1059.96986
33178.7505	1059.96978
33198.808	1059.96979
33220.567	1059.96980
33240.7272	1059.96979
33260.8668	1059.96979
33281.0167	1059.96985
33300.9058	1059.96986
33321.1245	1059.96980
33351.3579	1059.96978
33387.6158	1059.96983
33408.7418	1059.96981
33429.138	1059.96986
33449.6248	1059.96984
33470.7032	1059.96989
33491.0241	1059.96987
33511.1486	1059.96987
33531.2837	1059.96983
33551.3991	1059.96989
33571.5662	1059.96980
33591.8989	1059.96987
33612.239	1059.96989
33633.7969	1059.96985
33654.1254	1059.96992
33674.1254	1059.96991
33694.3652	1059.96994
33714.7422	1059.96985
33734.7495	1059.96988
33756.0903	1059.96990
33778.0247	1059.96994
33798.0653	1059.96990
33820.6914	1059.97000
33840.8987	1059.96991
33861.2727	1059.96994
33897.7404	1059.96996
33920.7292	1059.96989
33940.9969	1059.96995
33962.5352	1059.96995
33982.9882	1059.96998
34004.0309	1059.96996
34024.1484	1059.96997
34044.2487	1059.96996
34064.4088	1059.96993
34087.3637	1059.96995
34107.6695	1059.96994
34127.8655	1059.97000
34148.0233	1059.96999
34170.7078	1059.96993
34191.2824	1059.96998
34211.3784	1059.97002
34231.5347	1059.96997
34253.9979	1059.97003
34274.125	1059.97004
34294.3649	1059.97002
34314.7488	1059.97000
34337.2734	1059.97002
34360.1257	1059.97002
34380.6123	1059.96997
34402.0788	1059.96999
34422.4981	1059.97000
34457.3738	1059.97004
34478.3647	1059.97006
34498.3638	1059.97008
34520.7278	1059.97002
34541.6243	1059.97004
34561.7476	1059.97004
34581.986	1059.97005
34604.0234	1059.97004
34624.0964	1059.97001
34644.7838	1059.97006
34665.0654	1059.97003
34687.3676	1059.97005
34707.3638	1059.97006
34727.7404	1059.97003
34748.398	1059.97000
34770.6482	1059.97003
34791.1259	1059.97005
34810.9992	1059.97004
34831.0231	1059.97000
34853.9876	1059.97008
34874.6134	1059.97010
34894.8646	1059.97014
34915.1247	1059.97013
34937.3628	1059.97008
34957.364	1059.97005
34977.649	1059.97013
34997.8965	1059.97012
35017.9984	1059.97010
35038.1258	1059.97009
35058.1272	1059.97002
35078.2381	1059.97009
35098.3624	1059.97011
35121.1036	1059.97008
35141.271	1059.97013
35161.2483	1059.97012
35181.2946	1059.97009
35201.3719	1059.97017
35228.8629	1059.97016
35249.1461	1059.97012
35270.6305	1059.97018
35290.8011	1059.97015
35310.7358	1059.97011
35330.7391	1059.97011
35354.0228	1059.97016
35374.4953	1059.97017
35394.7362	1059.97013
35414.9394	1059.97013
35437.2718	1059.97012
35457.3759	1059.97016
35477.4635	1059.97019
35497.7824	1059.97018
35520.5641	1059.97015
35540.7453	1059.97018
35560.747	1059.97018
35582.3649	1059.97015
35603.9177	1059.97016
35624.3611	1059.97014
35644.6231	1059.97022
35664.6145	1059.97018
35687.2378	1059.97019
35707.364	1059.97021
35727.4535	1059.97021
35747.6228	1059.97013
35767.7268	1059.97017
35788.001	1059.97019
35808.1524	1059.97023
35829.406	1059.97019
35849.7536	1059.97023
35870.5207	1059.97025
35890.623	1059.97026
35910.7368	1059.97028
35930.6256	1059.97023
35951.4959	1059.97029
35972.7153	1059.97026
35997.6281	1059.97020
36017.4954	1059.97019
36037.4073	1059.97025
36057.564	1059.97021
36077.6222	1059.97027
36097.5648	1059.97022
36118.5265	1059.97025
36147.8509	1059.97028
36170.5332	1059.97025
36193.1338	1059.97028
36213.2709	1059.97027
36234.5214	1059.97028
36256.0998	1059.97030
36277.6451	1059.97031
36298.0928	1059.97035
36320.6213	1059.97029
36340.7473	1059.97030
36361.4861	1059.97033
36389.2485	1059.97027
36410.4452	1059.97029
36430.8603	1059.96836
36451.8104	1059.96185
36473.0475	1059.95253
36494.4999	1059.93751
36514.8599	1059.92010
36537.3129	-4
36560.7792	-4
36581.6119	-4
36601.7518	-3
36622.1226	1059.77764
36641.7284	1059.78309
36660.5201	-4
36681.2478	1059.71981
36704.0069	1059.60436
36724.2704	1059.59640
36743.1216	1059.54841
36763.1274	1059.43666
36782.6594	1059.41953
36803.9347	1059.36886
36823.934	1059.28251
36843.9933	1059.21641
36863.6539	1059.13236
36884.7371	1059.06361
36919.5201	1058.91653
36938.8632	1058.75892
36958.9512	-4
36980.3603	1058.61666
37002.7437	1058.52826
37024.3602	1058.40344
37043.3767	1058.24352
37062.7805	1058.19563
37081.9935	1058.07270
37100.5207	1057.94173
37120.836	1057.86032
37141.1446	1057.72342
37161.1445	1057.57336
37181.621	1057.42103
37204.0203	1057.34329
37224.994	-4
37247.5048	-4
37269.8933	-4
37291.3643	1056.70796
37310.2414	1056.54107
37329.3691	1056.34820
37353.8604	1056.19546
37372.4717	1056.04679
37390.3499	1055.87719
37409.468	1055.82340
37429.4722	1055.69662
37460.736	1055.56006
37480.8323	-4
37521.6447	1055.37943
37551.3667	1055.33428
37573.4897	1055.21651
37596.3328	1055.21221
37618.1305	1055.18531
37637.3705	1055.16596
37656.8592	1055.15493
37676.8595	1055.07443
37696.6251	1055.06176
37716.6861	1055.05203
37737.1233	1055.03757
37757.4833	1055.02398
37778.8611	1055.01667
37799.063	1055.00693
37820.4156	1055.00007
37840.7443	1055.02121
37860.6555	1055.03679
37881.3686	1055.03342
37903.9349	1055.02997
37925.0604	1055.02879
37946.7342	1055.02742
37968.1522	1055.03031
37989.4837	-4
38018.4829	-4
38042.3006	-4
38066.7729	1055.02750
38091.3025	1055.02738
38111.744	1055.02735
38131.7412	1055.02727
38154.2426	1055.02725
38174.8585	1055.02732
38199.6417	1055.02727
38220.3093	1055.02732
38240.7447	1055.02749
38262.4927	1055.02748
38284.1111	1055.02744
38305.1211	1055.02774
38325.4038	1055.02777
38346.1202	1055.02778
38367.1121	1055.02811
38387.309	1055.02809
38408.1211	1055.02810
38428.4943	1055.02843
38449.2468	1055.02840
38470.9738	1055.02842
38490.9939	1055.02840
38511.684	1055.02842
38532.6166	1055.02869
38553.9923	1055.02870
38574.4977	1055.02871
38595.1523	1055.02868
38615.2443	1055.02853
38637.4028	1055.02854
38657.5176	1055.02856
38677.8596	1055.02854
38702.4399	1055.02871
38722.8613	1055.02873
38743.3739	1055.02870
38763.9823	1055.02873
38784.6102	1055.02874
38805.2746	1055.02875
38830.2428	1055.02872
38854.7731	1055.02874
38875.2432	1055.02873
38895.2441	1055.02858
38915.6219	1055.02856
38937.1199	1055.02859
38963.2422	1055.02856
38984.3583	1055.02876
39005.4732	1055.02880
39027.5154	1055.02879
39047.9922	1055.02877
39070.4342	1055.02877
39091.0168	1055.02876
39111.307	1055.02877
39131.7678	1055.02877
39153.7435	1055.02861
39174.3623	1055.02860
39194.6205	1055.02861
39215.0166	1055.02861
39237.1228	1055.02878
39258.5178	1055.02877
39278.9378	1055.02878
39299.0275	1055.02879
39320.6095	1055.02881
39340.7432	1055.02878
39362.6752	1055.02880
39383.2704	1055.02880
39403.8686	1055.02879
39425.1197	1055.02860
39445.5228	1055.02861
39465.9815	1055.02864
39487.935	1055.02863
39508.6522	1055.02882
39530.6168	1055.02884
39551.7437	1055.02880
39572.7182	1055.02882
39594.4437	1055.02883
39615.0167	1055.02881
39637.4292	1055.02882
39672.4362	1055.02883
39693.0264	1055.02881
39721.8599	1055.02880
39743.7662	1055.02881
39763.9916	1055.02882
39784.644	1055.02883
39804.9904	1055.02884
39825.4128	1055.02884
39845.7666	1055.02883
39865.9803	1055.02884
39887.0732	1055.02882
39907.357	1055.02885
39936.1094	1055.02883
39956.8564	1055.02885
39977.1212	1055.02885
39997.5164	1055.02885
40018.0658	1055.02886
40038.7481	1055.02883
40059.0158	1055.02883
40079.1184	1055.02884
40099.4206	1055.02885
40120.3922	1055.02886
40140.7486	1055.02886
40161.244	1055.02883
40181.7425	1055.02887
40203.8597	1055.02885
40225.3589	1055.02883
40245.7403	1055.02885
40266.2321	1055.02884
40287.141	1055.02885
40307.6405	1055.02885
40328.7402	1055.02882
40349.358	1055.02884
40370.9153	1055.02887
40391.1323	1055.02883
40411.3512	1055.02888
40431.6196	1055.02886
40453.8573	1055.02886
40474.4894	1055.02887
40494.8062	1055.02885
40515.1181	1055.02885
40537.1183	1055.02887
40557.3556	1055.02885
40577.9431	1055.02890
40599.7897	1055.02887
40626.6178	1055.02885
40647.1022	1055.02889
40667.74	1055.02890
40689.0343	1055.02888
40710.6209	1055.02888
40730.9899	1055.02889
40753.8321	1055.02888
40773.9792	1055.02889
40794.1172	1055.02851
40814.6405	1055.02561
40837.0422	-4
40865.8563	-4
40887.5157	1054.99047
40908.2429	1054.97008
40927.5177	1054.88333
40946.6242	1054.86521
40965.7398	1054.86168
40995.8907	-4
41019.2459	1054.79625
41039.2746	1054.69480
41059.6404	1054.69549
41080.5157	-4
41107.8581	1054.54390
41128.365	-4
41148.8584	1054.40042
41170.3581	1054.33203
41189.7306	1054.31300
41210.4916	1054.18424
41230.7385	-4
41252.4896	1054.02620
41273.0884	1054.00078
41293.0598	1053.85107
41312.6191	1053.81811
41332.2415	1053.66368
41353.7202	1053.57091
41375.5389	1053.45908
41395.5875	1053.34718
41415.5648	1053.23609
41437.0153	1053.16456
41461.6172	1052.99872
41482.542	1052.85455
41503.6149	1052.72847
41523.9703	1052.64941
41545.107	1052.44708
41565.7707	1052.31087
41587.0156	1052.17162
41608.1401	1052.02641
41628.8553	1051.87224
41649.7261	1051.71937
41670.4838	1051.56580
41692.521	1051.39455
41712.9894	1051.21643
41733.4201	1051.04492
41754.1386	-4
41776.3576	1050.82292
41797.9706	1050.64250
41820.3572	1050.54724
41839.8543	1050.45818
41859.2742	1050.39355
41878.1613	-4
41900.7309	1050.28936
41920.8553	1050.29751
41941.0138	1050.20009
41961.5249	1050.16156
41981.3639	1050.14071
42001.1198	1050.11118
42022.1389	-4
42042.4793	1050.13731
42063.3038	1050.06223
42085.1226	1050.04892
42106.9775	1050.03430
42128.616	1050.02224
42150.024	-4
42173.6147	-4
42194.4878	-4
42215.1157	1049.99800
42237.0318	1049.99454
42256.7277	1049.99174
42279.6174	1049.98947
42299.0873	1049.98779
42320.3051	1049.98806
42341.3635	1049.98488
42361.6381	1049.98424
42381.5235	1049.99020
42403.6393	1049.99009
42425.7306	1049.98914
42455.5699	1049.98934
42476.3567	1049.98815
42497.1394	1049.98859
42518.5558	1049.98861
42540.2196	1049.98929
42561.3536	1049.98935
42583.0572	1049.98978
42604.3262	1049.98978
42625.0131	1049.98978
42645.8649	1049.99008
42667.0565	1049.99006
42687.9169	1049.99007
42715.6159	1049.98997
42736.8567	-4
42761.5038	-4
42782.2624	-4
42803.7387	1049.98437
42832.1147	1049.98438
42853.7457	1049.98439
42873.2913	1049.98440
42892.8643	1049.98460
42912.2397	1049.98460
42931.728	1049.98461
42953.6163	1049.98461
42976.5125	1049.98462
42996.1149	1049.98483
43015.5932	1049.98484
43036.8557	1049.98485
43056.2751	1049.98485
43075.637	1049.98691
43096.6398	1049.98753
43117.3565	1049.98742
43137.3944	1049.98723
43160.6205	1049.98723
43181.3628	1049.98761
43203.7463	1049.98754
43224.7632	1049.98750
43245.5134	1049.98742
43266.243	-4
43287.9906	-4
43309.0542	-4
43329.6368	1049.98553
43349.8704	1049.98556
43372.5134	1049.98550
43393.3991	1049.98548
43413.2411	1049.98549
43433.7187	1049.98542
43453.4944	1049.98507
43476.7168	1049.98509
43496.0866	1049.98509
43515.9268	1049.98513
43535.6153	1049.98511
43555.3028	1049.98510
43574.7392	1049.98512
43594.8624	1049.98511
43614.9737	1049.98512
43635.9873	1049.98513
43655.9934	1049.98492
43675.272	1049.98492
43694.9863	1049.98492
43714.9932	1049.98492
43737.2171	1049.98493
43756.9862	1049.98493
43776.578	1049.98493
43796.3528	1049.98494
43815.998	1049.98493
43839.4291	1049.98493
43859.514	1049.98452
43879.2724	1049.98452
43899.4766	1049.98485
43926.8542	1049.98484
43946.6051	1049.98504
43966.5716	1049.98501
43986.6365	1049.98503
44005.9912	1049.98503
44026.7615	1049.98502
44046.2379	1049.98501
44065.7364	1049.98503
44086.7629	1049.98503
44106.6152	1049.98506
44125.9077	1049.98504
44145.1367	1049.98504
44164.8546	1049.98503
44184.2385	1049.98504
44203.907	1049.98505
44223.272	1049.98506
44242.8865	1049.98506
44262.7752	1049.98504
44282.3544	1049.98506
44305.9292	1049.98505
44330.3863	1049.98507
44350.1114	1049.98507
44370.0593	1049.98507
44389.5108	1049.98505
44409.8786	1049.98508
44438.2257	1049.98507
44458.136	1049.98506
44477.6463	1049.98508
44497.1151	1049.98507
44520.9535	1049.98510
44540.3541	1049.98509
44559.9851	1049.98508
44579.6141	1049.98511
44599.7937	1049.98509
44620.9276	1049.98509
44640.6133	1049.98511
44660.1034	1049.98511
44679.5118	1049.98510
44698.9751	1049.98511
44720.237	1049.98512
44739.851	1049.98510
44759.4288	1049.98510
44779.0911	1049.98509
44798.9323	1049.98515
44820.2814	1049.98515
44839.9884	1049.98515
44868.6191	1049.98515
44888.3047	1049.98515
44907.895	1049.98516
44927.5773	1049.98512
44947.3543	1049.98517
44967.327	1049.98514
44993.5124	1049.98515
45013.1032	1049.98520
45032.9593	1049.98517
45052.8529	1049.98515
45072.7432	1049.98517
45092.3006	1049.98516
45113.0211	1049.98516
45132.9427	1049.98517
45152.6773	1049.98519
45172.6349	1049.98520
45192.1361	1049.98517
45211.8265	1049.98521
45231.475	1049.98523
45250.8862	1049.98518
45270.6126	1049.98522
45290.3533	1049.98521
45309.8505	1049.98523
45329.5528	1049.98518
45350.5344	1049.98522
45386.1768	1049.98524
45406.2269	1049.98525
45426.2151	1049.98525
45446.1136	1049.98527
45466.1245	1049.98528
45486.1125	1049.98523
45506.3263	1049.98524
45526.0316	1049.98527
45545.7602	1049.98526
45565.6029	1049.98525
45598.479	1049.98524
45621.0112	1049.98526
45641.0096	1049.98531
45660.8495	1049.98531
45680.6129	1049.98531
45700.4783	1049.98534
45720.6027	1049.98527
45740.4897	1049.98531
45760.3509	1049.98526
45780.0108	1049.98530
45800.1065	1049.98539
45819.8843	1049.98539
45839.9834	1049.98530
45859.7137	1049.98534
45879.4834	1049.98529
45899.302	1049.98526
45919.1438	1049.98533
45948.2371	1049.98533
45970.2605	1049.98547
45990.1127	1049.98534
46010.1119	1049.98535
46029.9049	1049.98551
46050.0223	1049.98538
46070.2366	1049.98538
46090.1754	1049.98535
46110.1019	1049.98537
46129.8264	1049.98533
46149.7947	1049.98540
46170.1023	1049.98538
46190.1349	1049.98536
46210.4242	1049.98536
46230.7653	1049.98542
46253.6125	1049.98537
46273.9836	1049.98543
46294.2247	1049.98542
46314.3523	1049.98539
46337.0191	1049.98539
46357.1347	1049.98543
46377.2276	1049.98539
46396.9302	1049.98539
46417.3515	1049.98546
46437.8461	1049.98552
46458.5089	1049.98546
46478.5082	1049.98546
46498.5827	1049.98546
46526.5823	1049.98553
46546.8476	1049.98568
46570.2262	1049.98554
46590.3434	1049.98563
46617.3845	1049.98547
46637.4703	1049.98550
46657.4059	1049.98548
46677.2371	1049.98545
46696.8891	1049.98562
46717.1353	1049.98555
46737.2384	1049.98563
46757.0083	1049.98562
46776.9227	1049.98557
46796.9471	1049.98557
46816.9475	1049.98563
46852.8487	1049.98556
46873.0083	1049.98549
46892.972	1049.98555
46912.9727	1049.98559
46933.1149	1049.98551
46960.4264	1049.98556
46980.3607	1049.98555
47000.3424	1049.98569
47020.3508	1049.98561
47040.4845	1049.98549
47061.4755	1049.98549
47081.3598	1049.98557
47103.6164	1049.98567
47123.4838	1049.98569
47143.4737	1049.98558
47163.1102	1049.98557
47182.9483	1049.98584
47212.922	1049.98566
47233.2355	1049.98558
47260.5077	1049.98560
47280.1107	1049.98558
47301.3145	1049.98562
47321.0989	1049.98580
47340.8496	1049.98563
47360.9387	1049.98563
47380.7026	1049.98587
47400.5354	1049.98577
47436.3609	1049.98560
47456.2598	1049.98556
47476.2366	1049.98575
47496.1162	1049.98585
47515.9421	1049.98573
47552.7352	1049.98592
47573.9222	1049.98565
47594.5083	1049.98579
47614.5079	-4
47637.4247	-4
47658.8243	1049.98577
47679.7679	1049.98570
47699.9924	1049.98568
47735.983	1049.98568
47755.8826	1049.98577
47775.9819	1049.98577
47796.3498	1049.98566
47816.5988	1049.98586
47844.4096	1049.98582
47864.3561	1049.98592
47888.6394	1049.98589
47912.3641	1049.98589
47932.4254	1049.98583
47954.5087	1049.98592
47975.6732	1049.98594
47996.6486	1049.98582
48017.1741	1049.98574
48037.2332	1049.98575
48057.3397	1049.98582
48077.4033	1049.98589
48097.3098	1049.98585
48117.3252	1049.98573
48137.5989	1049.98581
48157.5996	1049.98593
48178.7663	1049.98574
48200.0951	1049.98581
48220.4571	1049.98600
48244.7239	1049.98599
48265.7259	1049.98586
48286.8505	1049.98595
48307.983	1049.98585
48330.257	1049.98590
48353.9721	1049.98593
48375.2115	1049.98590
48395.0995	1049.98602
48416.4403	1049.98574
48436.7471	1049.98589
48463.5487	1049.98594
48484.716	1049.98604
48506.2945	1049.98606
48527.4144	1049.98599
48548.173	1049.98608
48570.2321	1049.98614
48592.4717	1049.98598
48613.9834	1049.98588
48636.7577	1049.98608
48658.1307	1049.98600
48679.3485	1049.98607
48700.4219	1049.98623
48721.0807	1049.98599
48741.396	1049.98587
48763.1412	1049.98605
48785.1298	1049.98609
48807.0023	1049.98598
48828.3502	1049.98605
48848.3491	1049.98592
48870.2184	1049.98595
48894.2243	1049.98600
48915.1196	1049.98601
48936.85	1049.98605
48958.2323	1049.98607
48979.2304	1049.98595
49000.2365	1049.98611
49022.6409	1049.98608
49046.3934	1049.98612
49067.633	1049.98608
49089.1976	1049.98599
49111.0936	1049.98603
49132.1081	1049.98614
49155.8467	1049.98604
49185.8494	1049.98616
49206.6004	1049.98607
49232.9589	1049.98615
49255.1122	1049.98614
49276.1081	1049.98605
49297.4834	1049.98624
49320.4825	1049.98622
49344.8837	1049.98608
49365.9876	1049.98630
49386.8643	1049.98623
49407.9802	1049.98605
49428.822	1049.98622
49452.974	1049.98638
49474.1251	1049.98615
49496.1557	1049.98622
49517.7569	1049.98618
49538.5791	1049.98633
49560.0479	1049.98618
49584.0073	1049.98629
49605.3553	1049.98624
49625.9368	1049.98640
49647.0974	1049.98632
49670.3469	1049.98623
49695.2581	1049.98634
49716.3247	1049.98631
49737.2333	1049.98647
49758.3204	1049.98630
49795.1309	1049.98650
49817.2226	1049.98630
49838.6085	1049.98631
49859.8478	1049.98637
49880.9373	1049.98626
49903.8956	1049.98658
49927.6145	1049.98655
49948.3455	1049.98631
49970.2394	1049.98638
49991.0053	1049.98642
50012.1157	1049.98625
50033.0088	1049.98660
50057.5061	1049.98631
50078.7317	-4
50103.6065	1049.98710
50127.9218	1049.97870
50153.4832	1049.96395
50173.6073	1049.94069
50196.6182	1049.92358
50230.8478	1049.89320
50253.2956	1049.84350
50274.2095	1049.80419
50294.4785	1049.76529
50315.1511	1049.71967
50336.7859	1049.68345
50357.8742	1049.62423
50378.7811	-4
50402.2231	1049.51226
50437.8611	1049.44189
50459.0702	1049.32304
50479.462	1049.31349
50499.6466	1049.18111
50519.5982	1049.10381
50540.6315	1049.02503
50560.7953	1048.93649
50580.5041	-4
50610.5054	1048.81431
50632.8652	1048.62241
50654.1312	1048.50924
50674.4742	1048.40232
50693.4741	1048.29675
50713.1074	1048.18612
50733.5476	1048.08610
50755.2314	1047.96877
50775.7319	1047.82716
50795.9615	1047.70122
50817.4796	1047.64010
50839.0878	1047.44379
50860.7539	1047.27668
50881.3368	1047.13223
50903.3919	1046.99151
50925.1049	-4
50946.8814	1046.66001
50970.0051	1046.49225
50991.2311	1046.31286
51010.5959	1046.14188
51029.8576	1045.98334
51049.22	1045.85965
51069.9787	1045.73802
51089.7297	1045.63307
51109.1068	1045.54441
51128.7301	1045.46568
51148.8844	1045.40266
51170.0057	-4
51191.5699	1045.28133
51212.8567	1045.24067
51233.2956	1045.19501
51253.8567	1045.16376
51273.5036	1045.13483
51293.4707	1045.11734
51313.8441	1045.09995
51332.7981	1045.08123
51353.4694	1045.06185
51373.9801	1045.04894
51394.2646	-4
51415.7316	-4
51437.4685	1045.02149
51460.0142	1045.01487
51479.2094	1045.00917
51498.6057	1045.00559
51520.098	1045.00244
51539.4848	1044.99937
51558.6693	1044.99703
51578.3266	1044.99517
51598.0168	1044.99353
51617.6112	1044.99234
51636.9836	1044.99123
51656.3799	1044.99028
51676.7209	1044.98940
51696.9835	1044.98921
51725.9778	1044.98866
51745.4842	1044.98850
51764.8556	1044.98823
51784.0966	1044.98825
51803.4602	1044.98827
51825.1502	1044.98853
51844.1074	1044.98853
51863.2298	1044.98853
51883.0285	1044.98884
51902.3534	1044.98884
51921.5965	1044.98884
51941.0029	1044.98919
51960.4677	1044.98919
51979.7301	1044.98919
51999.0456	1044.98955
52032.9803	1044.98956
52053.1709	1044.99006
52072.3441	1044.99008
52091.4676	1044.99008
52110.4207	1044.99008
52129.4791	1044.99056
52148.6735	1044.99061
52170.347	1044.99062
52189.4671	1044.99063
52208.7316	1044.99063
52227.7296	1044.99063
52246.7525	1044.99104
52266.5111	1044.99105
52286.6286	1044.99105
52305.9721	1044.99106
52325.2267	1044.99107
52344.4823	1044.99107
52363.985	1044.99107
52383.2159	1044.99084
52403.0948	1044.99084
52422.4063	1044.99084
52441.6054	1044.99085
52460.5029	1044.99085
52479.7277	1044.99085
52499.0469	1044.99085
52533.005	1044.99086
52553.2182	1044.99086
52572.3773	1044.99051
52592.7308	1044.99050
52612.6103	1044.99051
52633.9164	1044.99051
52655.5954	1044.99084
52674.8426	1044.99084
52694.9664	1044.99085
52714.7282	1044.99085
52734.0951	1044.99085
52753.3426	1044.99085
52772.6045	1044.99086
52792.1027	1044.99086
52811.2312	1044.99086
52830.627	1044.99085
52849.8011	1044.99054
52875.9163	1044.99054
52895.342	1044.99055
52915.752	1044.99083
52936.604	1044.99088
52955.8423	1044.99088
52975.2066	1044.99088
52994.3835	1044.99088
53013.7181	1044.99088
53042.6047	1044.99089
53069.6278	1044.99089
53088.7514	1044.99089
53107.7352	1044.99056
53127.0023	1044.99058
53146.2264	1044.99057
53167.3835	1044.99099
53186.7281	1044.99091
53206.127	1044.99091
53225.3519	1044.99091
53244.7056	1044.99091
53264.1052	1044.99091
53283.6084	1044.99091
53305.353	1044.99091
53324.594	1044.99091
53344.0017	1044.99091
53363.9623	1044.99092
53383.549	1044.99092
53403.9565	1044.99092
53423.4745	1044.99092
53442.7197	1044.99093
53462.0443	1044.99093
53481.6356	1044.99093
53503.3419	1044.99093
53522.8543	1044.99093
53542.1037	1044.99093
53561.351	1044.99094
53580.7345	1044.99094
53600.7068	1044.99094
53619.9195	1044.99094
53638.8432	1044.99094
53657.8414	1044.99094
53676.9757	1044.99094
53696.2161	1044.99095
53730.1024	1044.99095
53749.6486	1044.99095
53770.0028	1044.99095
53789.6475	1044.99095
53809.8425	1044.99095
53829.4753	1044.99096
53849.22	1044.99096
53868.9761	1044.99096
53889.593	1044.99096
53909.5679	1044.99096
53929.0937	1044.99096
53948.3435	1044.99096
53967.3435	1044.99097
53994.5469	1044.99097
54013.6053	1044.99097
54033.3178	1044.99097
54057.4163	1044.99097
54076.5118	1044.99097
54095.8566	1044.99098
54115.2274	1044.99098
54136.6259	1044.99098
54155.9779	1044.99098
54175.417	1044.99098
54194.9649	1044.99098
54214.3753	1044.99098
54233.7619	1044.99099
54253.1652	1044.99099
54272.6028	1044.99099
54292.105	1044.99099
54311.4816	1044.99099
54330.791	1044.99099
54350.0859	1044.99099
54384.5021	1044.99100
54403.8628	1044.99100
54423.5016	1044.99100
54442.843	1044.99100
54462.2173	1044.99100
54481.7339	1044.99100
54503.2278	1044.99100
54522.5112	1044.99101
54541.7324	1044.99100
54560.9643	1044.99101
54580.6026	1044.99101
54600.4202	1044.99101
54619.8755	1044.99101
54639.092	1044.99101
54658.5429	1044.99101
54677.9823	1044.99101
54697.4749	1044.99102
54716.6256	1044.99102
54739.2912	1044.99102
54759.5918	1044.99102
54779.4565	1044.99102
54799.0334	1044.99102
54826.3406	1044.99102
54845.6257	1044.99102
54867.0004	1044.99103
54886.3166	1044.99103
54905.6252	1044.99103
54925.2324	1044.99103
54944.9798	1044.99103
54964.7194	1044.99103
54987.6026	1044.99103
55007.0218	1044.99103
55026.4803	1044.99103
55049.3783	1044.99104
55069.9426	1044.99104
55089.2274	1044.99104
55108.3171	1044.99104
55129.626	1044.99104
55149.6046	1044.99104
55168.875	1044.99104
55188.093	1044.99104
55209.9999	1044.99104
55229.2156	1044.99104
55259.2493	1044.99105
55278.6003	1044.99105
55297.8425	1044.99105
55317.4642	1044.99105
55336.4735	1044.99105
55365.7142	1044.99105
55386.8085	1044.99105
55406.0056	1044.99105
55428.1043	1044.99105
55447.2037	1044.99106
55471.2022	1044.99106
55490.7277	1044.99106
55510.1117	1044.99106
55529.4983	1044.99106
55548.7895	1044.99106
55570.2244	1044.99098
55592.8455	1044.98697
55612.2151	1044.97911
55631.4788	1044.96901
55653.8165	1044.96347
55673.1242	1044.94290
55692.9634	1044.91612
55712.9156	1044.89620
55732.5518	-4
55753.896	-4
55789.6355	1044.79993
55822.974	1044.71956
55844.6009	1044.64967
55864.0731	1044.59588
55886.7104	1044.53403
55907.1022	1044.46984
55929.2246	1044.40576
55949.7314	-4
55971.9724	1044.26009
55992.29	-4
56012.3421	1044.10381
56032.3417	1044.01252
56053.3387	1043.93960
56072.6003	1043.83587
56093.9985	1043.75587
56114.4725	1043.65442
56136.7506	1043.54946
56156.1328	-3
56175.9985	1043.33309
56195.7243	1043.22084
56215.7213	1043.11560
56252.9752	1043.00096
56273.4548	1042.77190
56293.8842	1042.63129
56314.8514	1042.51788
56338.5566	1042.37697
56359.8461	1042.19639
56380.8969	1042.04408
56403.3086	1041.89747
56425.4732	1041.74569
56446.8944	1041.56481
56468.5992	1041.40105
56488.793	1041.23036
56508.3401	1041.06810
56527.2887	1040.91319
56547.2588	1040.77492
56567.4369	1040.65083
56588.124	1040.57745
56609.1019	1040.46510
56628.9743	-4
56665.2317	1040.32893
56686.7576	-4
56707.7256	1040.19395
56728.0983	1040.14782
56747.5718	1040.12609
56766.6352	1040.12775
56786.9996	1040.10651
56808.4725	1040.07964
56830.5904	1040.06227
56853.3341	1040.05561
56875.0926	1040.00461
56896.4722	1039.99570
56937.1094	1039.99083
56959.0808	1039.98075
56980.7488	1039.97560
57003.3138	1039.97018
57024.6232	1039.98285
57046.2877	1039.99184
57069.9848	1039.99159
57097.1097	1039.99082
57119.973	1039.98760
57141.0727	1039.98757
57162.2302	1039.98707
57183.5983	1039.98650
57204.9726	1039.98613
57226.0993	1039.98565
57247.2223	1039.98570
57269.9404	1039.98575
57290.8734	1039.98615
57313.4975	1039.98613
57335.1207	1039.98614
57357.1971	1039.98654
57378.5189	1039.98655
57399.9549	1039.98656
57421.4112	1039.98690
57442.8408	1039.98689
57464.0068	1039.98689
57486.7243	1039.98714
57507.9707	1039.98710
57529.4976	1039.98720
57551.0667	1039.98721
57572.34	1039.98722
57593.9976	1039.98724
57615.3374	1039.98737
57636.519	1039.98754
57658.4722	1039.98754
57679.7308	1039.98755
57701.4966	1039.98755
57728.3392	1039.98755
57749.8407	1039.98682
57770.8719	1039.98804
57793.2127	1039.98806
57814.7222	1039.98682
57836.4159	1039.98806
57858.6662	1039.98684
57880.7201	1039.98780
57902.3377	1039.98780
57923.2727	1039.98781
57944.4624	1039.98780
57965.8348	1039.98777
57986.9962	1039.98778
58008.3292	1039.98779
58029.7224	1039.98780
58051.8124	1039.98781
58073.7012	1039.98740
58094.5799	1039.98741
58115.4619	1039.98744
58151.5536	1039.98775
58172.5989	1039.98777
58194.9963	1039.98778
58216.2471	1039.98775
58237.6211	1039.98775
58258.9129	1039.98781
58280.2292	1039.98779
58303.0069	1039.98778
58324.2564	1039.98749
58345.3356	1039.98744
58366.968	1039.98743
58388.0422	1039.98744
58409.2058	1039.98777
58430.6225	1039.98779
58453.0398	1039.98778
58474.1618	1039.98779
58495.3365	1039.98779
58516.8541	1039.98778
58538.2461	1039.98780
58559.3388	1039.98779
58580.6565	1039.98779
58617.081	1039.98744
58638.5095	1039.98741
58659.7127	1039.98784
58680.8937	1039.98779
58703.0407	1039.98782
58724.3708	1039.98779
58745.4379	1039.98779
58766.7277	1039.98781
58797.7229	1039.98780
58819.7576	1039.98782
58840.8726	1039.98783
58869.6627	1039.98783
58891.8372	1039.98779
58914.1426	1039.98780
58937.5627	1039.98781
58959.0999	1039.98783
58980.3467	1039.98782
59003.0996	1039.98780
59025.4953	1039.98784
59046.7116	1039.98784
59069.8049	1039.98781
59091.0388	1039.98782
59112.2321	1039.98782
59133.6214	1039.98782
59155.2119	1039.98783
59185.1206	1039.98782
59206.47	1039.98782
59227.9752	1039.98782
59249.0733	1039.98782
59271.8535	1039.98781
59294.3402	1039.98783
59319.6423	1039.98781
59342.5572	1039.98782
59365.0379	1039.98782
59386.9369	1039.98784
59408.4565	1039.98785
59429.9595	1039.98782
59453.1357	1039.98784
59474.7136	1039.98782
59496.6409	1039.98784
59518.5537	1039.98784
59540.088	1039.98786
59561.5995	1039.98783
59583.1828	1039.98786
59605.4688	1039.98787
59627.2212	1039.98785
59648.8868	1039.98785
59670.5983	1039.98785
59699.3701	1039.98783
59721.0872	1039.98785
59752.7865	1039.98786
59774.3808	1039.98786
59796.1196	1039.98786
59817.9981	1039.98787
59840.0055	1039.98784
59861.5971	1039.98785
59883.2214	1039.98786
59906.2119	1039.98786
59928.3704	1039.98787
59950.1198	1039.98786
59971.7204	1039.98787
59993.3496	1039.98786
60015.1786	1039.98785
60036.9704	1039.98784
60058.5967	1039.98788
60079.8403	1039.98789
60101.4621	1039.98787
60123.1984	1039.98787
60144.4104	1039.98785
60165.7281	1039.98785
60186.9713	1039.98787
60208.3374	1039.98786
60229.495	1039.98786
60251.2467	1039.98788
60272.4944	1039.98785
60302.4088	1039.98788
60324.1198	1039.98787
60345.5861	1039.98788
60367.3466	1039.98788
60388.7845	1039.98786
60418.5865	1039.98789
60440.2252	1039.98789
60461.6004	1039.98788
60482.9264	1039.98789
60504.0984	1039.98666
60525.2546	1039.98789
60546.7222	1039.98787
60570.2081	1039.98789
60592.971	1039.98791
60615.0958	1039.98669
60636.5394	1039.98790
60657.846	1039.98790
60678.8365	1039.98790
60700.97	1039.98789
60722.9722	1039.98790
60744.2438	1039.98791
60765.7169	1039.98789
60786.7441	1039.98790
60807.8357	1039.98791
60829.6187	1039.98668
60851.119	1039.98790
60872.3691	1039.98789
60896.9777	1039.98790
60919.9104	1039.98790
60942.2533	1039.98788
60969.596	1039.98792
60990.8805	1039.98790
61012.2101	1039.98790
61033.4678	1039.98669
61055.225	1039.98792
61076.4929	1039.98668
61098.1273	1039.98790
61119.8024	1039.98791
61141.2537	1039.98793
61164.5497	1039.98790
61186.4574	1039.98792
61207.8357	1039.98667
61232.4133	1039.98791
61253.7195	1039.98792
61274.8889	1039.98793
61304.2218	1039.98792
61325.4075	1039.98790
61349.0974	1039.98747
61370.7145	1039.98275
61391.9929	1039.97523
61413.2258	1039.96437
61436.72	1039.93793
61457.8252	1039.91783
61479.0362	-4
61500.5964	1039.83796
61521.9677	1039.84474
61542.1492	1039.77508
61562.1383	1039.75759
61586.5297	1039.69381
61620.784	1039.63037
61640.9925	1039.55355
61660.8357	1039.53775
61680.1173	1039.45176
61703.2722	1039.40112
61723.8493	1039.31439
61743.6177	1039.25756
61764.1177	1039.16257
61783.7193	1039.11160
61804.3352	1039.00728
61824.2627	1038.94713
61844.7278	1038.83533
61865.0127	1038.73892
61886.4931	1038.66003
61905.8407	1038.54440
61926.117	1038.45495
61949.3355	1038.34565
61969.8322	1038.23718
61989.4563	1038.09673
62009.1277	1037.98318
62029.2087	1037.85942
62049.5241	1037.73072
62069.9667	1037.59740
62089.7185	1037.48132
62109.4804	1037.34284
62129.3422	1037.22482
62150.3364	1037.07995
62171.4113	1036.90850
62193.5034	1036.75508
62213.2378	1036.59552
62233.4457	1036.43605
62255.7558	1036.28003
62276.4114	1036.08093
62296.0666	1035.92258
62316.5459	1035.78473
62336.6001	1035.66347
62356.3129	1035.56498
62376.2631	1035.48907
62396.2669	1035.41468
62416.3636	1035.34261
62436.2335	1035.28824
62459.8234	1035.24639
62479.4555	1035.18403
62499.0241	1035.14852
62519.3741	1035.12171
62539.6174	1035.09727
62560.8323	1035.07476
62581.3706	1035.05623
62603.036	1035.04397
62641.8173	1035.02036
62664.9273	-4
62687.7118	-4
62708.562	-4
62729.0529	1034.97660
62749.2372	1034.97643
62778.992	1034.97431
62798.4297	1034.96981
62838.8605	1034.96762
62859.1073	1034.96456
62879.053	1034.96354
62899.1102	1034.96274
62919.3337	1034.96200
62940.6264	1034.96163
62960.5817	1034.96128
62980.7182	1034.96094
63003.0664	1034.96099
63022.8657	1034.96100
63043.2073	1034.96125
63063.3311	1034.96125
63083.8664	1034.96126
63103.9663	1034.96158
63123.8334	1034.96158
63146.7809	1034.96192
63169.6168	1034.96195
63189.4908	1034.96230
63209.4556	1034.96230
63229.2172	1034.96274
63249.3937	1034.96275
63269.4656	1034.96275
63289.4674	1034.96318
63309.1572	1034.96318
63328.8341	1034.96350
63353.0786	1034.96350
63374.3888	1034.96351
63395.5598	1034.96386
63415.7061	1034.96385
63436.0006	1034.96386
63456.2169	1034.96386
63476.5073	1034.96386
63496.9085	1034.96400
63517.2108	1034.96423
63537.4054	1034.96424
63557.49	1034.96424
63577.8775	1034.96424
63598.4539	1034.96425
63621.5644	1034.96425
63641.3111	1034.96404
63662.1986	1034.96404
63682.1361	1034.96404
63702.9054	1034.96404
63722.5968	1034.96427
63742.5935	1034.96427
63762.5824	1034.96427
63783.2635	1034.96427
63810.0922	1034.96427
63829.9769	1034.96427
63850.2181	1034.96428
63870.3286	1034.96428
63890.2416	1034.96428
63910.1151	1034.96407
63929.9662	1034.96408
63950.375	1034.96407
63970.4853	1034.96407
63992.7499	1034.96429
64015.4735	1034.96429
64050.0828	1034.96430
64071.9899	1034.96430
64091.7509	1034.96430
64111.5953	1034.96430
64136.4709	1034.96430
64156.2164	1034.96430
64175.9905	1034.96409
64195.9699	1034.96410
64216.2746	1034.96410
64236.5538	1034.96410
64256.4703	1034.96431
64276.4634	1034.96431
64296.3303	1034.96432
64336.1785	1034.96432
64357.3251	1034.96432
64377.2064	1034.96432
64397.0156	1034.96432
64416.9403	1034.96432
64436.9028	1034.96432
64456.9696	1034.96432
64476.9702	1034.96432
64497.0557	1034.96433
64516.9742	1034.96433
64537.1253	1034.96433
64556.9797	1034.96434
64577.3409	1034.96433
64597.7165	1034.96434
64619.7164	1034.96433
64640.9638	1034.96434
64660.7801	1034.96434
64680.9537	1034.96434
64703.1148	1034.96434
64722.8879	1034.96434
64742.9635	1034.96434
64762.9538	1034.96434
64783.3407	1034.96435
64803.6265	1034.96435
64823.5802	1034.96435
64843.4986	1034.96435
64863.6881	1034.96435
64886.4905	1034.96435
64906.6447	1034.96436
64926.7386	1034.96435
64946.7068	1034.96435
64966.5831	1034.96436
64986.7212	1034.96436
65009.8415	1034.96437
65029.739	1034.96436
65050.8651	1034.96437
65071.1135	1034.96436
65091.3748	1034.96437
65114.9164	1034.96438
65136.3316	1034.96438
65156.4688	1034.96437
65176.4529	1034.96437
65196.3307	1034.96438
65216.7189	1034.96437
65252.5826	1034.96438
65272.4574	1034.96438
65292.463	1034.96438
65312.5546	1034.96439
65332.9926	1034.96438
65353.0969	1034.96438
65373.4109	1034.96438
65393.4331	1034.96439
65413.2031	1034.96439
65433.4167	1034.96439
65468.4632	1034.96439
65488.4224	1034.96439
65508.4684	1034.96439
65528.6139	1034.96439
65548.9678	1034.96440
65571.9539	1034.96440
65592.2143	1034.96440
65613.5923	1034.96440
65633.3392	1034.96440
65653.4526	1034.96440
65673.5797	1034.96441
65693.3626	1034.96440
65713.5324	1034.96440
65733.9305	1034.96441
65757.623	1034.96441
65777.6549	1034.96441
65797.6136	1034.96441
65819.592	1034.96441
65839.2487	1034.96441
65859.1543	1034.96442
65882.2148	1034.96442
65902.8392	1034.96442
65922.7601	1034.96442
65942.6236	1034.96442
65962.5365	1034.96442
65982.6446	1034.96442
66005.1562	1034.96442
66025.089	1034.96442
66044.9439	1034.96442
66064.8639	1034.96443
66087.5427	1034.96443
66107.748	1034.96443
66127.7067	1034.96443
66147.6014	1034.96443
66169.9941	1034.96443
66192.7477	1034.96443
66213.22	1034.96443
66233.3315	1034.96444
66253.2794	1034.96443
66273.8651	1034.96444
66293.714	1034.96444
66314.2476	1034.96444
66336.2488	1034.96444
66356.6909	1034.96444
66376.7829	1034.96445
66396.6691	1034.96445
66416.5713	1034.96444
66439.3302	1034.96445
66463.8627	1034.96445
66486.4886	1034.96445
66506.8622	1034.96445
66527.6343	1034.96445
66547.6128	1034.96445
66569.8207	1034.96445
66595.2122	1034.96445
66615.3037	1034.96445
66636.8293	1034.96446
66657.0877	1034.96446
66677.0896	1034.96446
66697.2036	1034.96445
66719.9629	1034.96446
66739.713	1034.96446
66762.4615	1034.96446
66782.8799	1034.96446
66802.9061	1034.96446
66825.9436	1034.96446
66847.3841	1034.96446
66869.7175	1034.96447
66889.7122	1034.96447
66909.6123	1034.96446
66929.704	1034.96447
66950.0617	1034.96447
66970.8195	1034.96447
66992.6916	1034.96447
67016.7483	1034.96447
67036.7149	1034.96447
67061.5891	1034.96448
67083.4927	1034.96448
67103.8439	1034.96448
67124.0893	1034.96448
67143.9199	1034.96448
67169.4633	1034.96448
67189.4616	1034.96448
67209.4016	1034.96448
67229.6112	1034.96448
67249.9864	1034.96448
67270.2185	1034.96448
67290.4026	1034.96449
67310.3819	1034.96448
67330.4609	1034.96449
67353.1105	1034.96449
67375.6836	1034.96448
67395.7472	1034.96449
67416.2093	1034.96449
67436.7071	1034.96450
67456.986	1034.96450
67477.2373	1034.96449
67497.3297	1034.96449
67519.5886	1034.96449
67539.7009	1034.96449
67561.0895	1034.96450
67581.3282	1034.96450
67602.9873	1034.96450
67623.1538	1034.96450
67643.4028	1034.96450
67663.4423	1034.96450
67683.3067	1034.96450
67718.9048	1034.96450
67740.4635	1034.96451
67760.6521	1034.96450
67781.0279	1034.96450
67803.0952	1034.96451
67823.0418	1034.96451
67843.382	1034.96451
67863.8294	1034.96451
67886.4618	1034.96451
67909.6112	1034.96451
67929.7008	1034.96451
67949.9537	1034.96451
67970.2575	1034.96451
67990.1317	1034.96451
68010.1109	1034.96451
68030.2025	1034.96451
68050.4416	1034.96452
68070.714	1034.96398
68090.7121	1034.95975
68110.7358	1034.95208
68131.5279	1034.94082
68152.9271	1034.92525
68173.3256	1034.90138
68193.2122	1034.88841
68213.0281	1034.84980
68233.3713	1034.81911
68253.6339	1034.79179
68277.5901	1034.75924
68304.3279	1034.70561
68324.2093	1034.64720
68345.2035	1034.60712
68366.4863	1034.53885
68387.1512	1034.48067
68407.3019	1034.40848
68427.2118	1034.34690
68447.2183	1034.25841
68469.4851	1034.21852
68489.0893	1034.12089
68508.3276	1034.05320
68528.9173	1033.98636
68549.985	1033.90581
68572.2027	1033.76269
68594.0278	1033.68266
68613.4525	1033.59039
68632.0948	1033.52941
68652.4586	1033.38278
68671.7012	1033.24255
68690.1995	-3
68711.3287	-3
68729.8282	-3
68755.4843	-14
68791.523	-14
68827.5626	-14
68879.5651	-14
68931.5666	282.42921
68983.5711	-14
69036.7002	-14
69089.8079	-14
69142.6933	-14
69196.9314	-14
69250.9065	-14
69304.9404	-14
69359.9409	-14
69415.0579	-14
69470.0306	-14
69526.0679	-14
69582.0699	-14
69638.2936	-14
69695.1692	-14
69752.3074	-14
69809.368	-14
69867.5346	-14
69925.5569	280.82850
69983.4398	-14
70041.4302	-14
70099.5667	-14
70157.8041	-14
70215.6882	-14
70273.7431	-14
70331.7678	-14
70389.8936	-14
70447.807	-14
70506.0204	-14
70563.9951	-14
70622.0544	-14
70680.0379	-14
70738.167	-14
70796.2431	-14
70854.1891	-14
70912.3135	-14
70970.1874	-14
71028.3124	-14
71086.4301	-14
71144.4281	-14
71202.5336	-14
71260.6612	-14
71318.5365	-14
71376.6076	-14
71434.7361	-14
71492.6797	-14
71550.7803	-14
71608.7422	-14
71666.9393	-14
71725.065	-14
71782.9365	-14
71841.0365	-14
71899.0866	-14
71957.2138	-14
72015.0813	-14
72073.4624	-14
72131.2557	-14
72189.2048	-14
72247.3974	-14
72305.4453	-14
72363.4954	-14
72421.5567	-14
72479.5807	-14
72537.6033	-14
72595.6871	-14
72653.8206	-14
72711.6947	-14
72769.8025	-14
72827.7993	-14
72885.8029	-14
72943.9334	-14
73001.9249	-14
73059.9345	-14
73117.9452	-14
73176.1852	-14
73234.1789	-14
73292.3028	-14
73350.1723	-14
73408.2935	-14
73466.2738	-14
73524.426	-14
73582.4389	-14
73640.4475	-14
73698.5406	-14
73756.6698	-14
73814.5599	-14
73872.6753	-14
73930.6832	-14
73988.9155	-14
74046.6773	-14
74104.9158	-14
74162.9237	-14
74220.9343	-14
74278.937	-14
74337.0912	-14
74395.8908	-14
74453.3105	-14
74511.3958	-14
74569.1829	-14
74627.2523	-14
74685.3007	-14
74743.4586	-14
74801.3087	-14
74859.5842	-14
74917.4692	-14
74975.5626	-14
75033.663	-14
75091.725	-14
75149.6844	-14
75207.7665	-14
75265.7907	-14
75323.8003	-14
75381.899	-14
75440.0508	-14
75498.1219	-14
75556.0824	-14
75614.0601	-14
75672.0826	-14
75730.1817	-14
75788.2782	-14
75846.3	-14
75904.3001	-14
75962.299	-14
76020.5429	-14
76078.4331	-14
76136.4337	-14
76194.424	-14
76252.5573	-14
76310.6812	-14
76368.7135	-14
76426.7923	-14
76484.8883	-14
76542.8028	-14
76600.9127	-14
76658.7988	-14
76716.9335	-14
76775.0362	-14
76834.2373	-14
76891.0303	-14
76949.2315	-14
77007.3728	-14
77065.2506	-14
77123.37	-14
77181.3308	-14
77239.5364	-14
77297.4323	-14
77355.4747	-14
77413.4905	-14
77471.6904	-14
77529.857	-14
77587.7749	-14
77645.7984	-14
77703.7589	-14
77761.8148	-14
77819.9522	-14
77877.9488	-14
77935.8982	-14
77993.9928	-14
78052.0779	-14
78110.21	-14
78168.2905	-14
78226.3165	-14
78284.2492	-14
78342.3042	-14
78400.3669	-14
78458.3864	-14
78516.4914	-14
78574.6152	-14
78632.5557	-14
78690.6588	-14
78748.681	-14
78806.6883	-14
78864.688	-14
78922.6781	-14
78980.9303	-14
79038.8287	-14
79096.7967	-14
79154.9304	-14
79212.9539	-14
79271.0547	-4
79329.2429	-4
79387.2044	-4
79407.1632	1034.66009
79427.4935	1034.77332
79448.4681	1034.91504
79470.9536	1035.21432
79496.3154	1035.33959
79517.8253	1035.62408
79539.5556	1035.82013
79562.1966	-4
79584.3125	-4
79605.3143	1036.56014
79624.5488	1036.77331
79656.1481	1037.00383
79675.8778	1037.36494
79695.598	1037.58300
79714.9493	1037.79707
79734.5467	1038.01635
79753.9434	1038.25285
79773.263	1038.49264
79792.6885	1038.69264
79812.1665	1038.84443
79832.6973	1039.01028
79853.1797	1039.14666
79872.9479	1039.27138
79893.074	1039.39250
79912.7431	1039.46045
79932.9062	-4
79954.675	1039.61076
79976.2285	1039.63222
79996.0462	1039.69464
80015.5153	1039.76257
80034.4459	1039.77026
80053.0467	1039.78441
80075.4047	1039.85575
80094.9533	1039.84223
80114.6566	1039.89486
80135.4147	-4
80156.0741	-4
80176.5716	1039.92844
80197.3126	1039.91721
80217.3248	1039.92958
80236.1985	1039.93919
80256.5962	1039.96024
80277.3463	1039.96667
80297.5512	1039.97432
80317.5762	1039.97675
80338.075	1039.97954
80359.2008	1039.98071
80379.8732	1039.98124
80400.3734	1039.98133
80420.9399	1039.98411
80441.8115	1039.98341
80462.5643	1039.98395
80484.4104	1039.98446
80507.9515	1039.98458
80529.6983	1039.98483
80550.414	1039.98484
80571.3235	1039.98481
80593.638	1039.98475
80614.7008	1039.98473
80635.4459	1039.98472
80657.5727	1039.98464
80679.708	1039.98428
80703.5336	1039.98435
80725.405	1039.98406
80748.0521	1039.98405
80769.3495	1039.98382
80797.5719	1039.98383
80818.8116	1039.98366
80839.5733	1039.98367
80860.2273	1039.98351
80881.096	1039.98350
80902.228	1039.98451
80925.6966	1039.98446
80946.691	1039.98534
80967.413	1039.98535
80988.3456	1039.98525
81034.1245	1039.98520
81056.0804	1039.98524
81077.9125	1039.98523
81099.3678	1039.98410
81133.1536	1039.98522
81154.1276	1039.98407
81174.8619	1039.98524
81195.573	1039.98520
81217.2878	1039.98522
81253.2199	1039.98525
81286.4508	1039.98369
81307.7223	1039.98372
81328.6885	1039.98370
81351.2762	1039.98372
81372.8519	1039.98373
81394.1939	1039.98372
81415.1671	1039.98365
81436.9476	1039.98375
81459.6836	1039.98375
81480.8874	1039.98371
81501.6948	1039.98370
81523.3277	1039.98373
81544.8662	1039.98370
81565.6871	1039.98370
81587.2431	1039.98373
81609.1193	1039.98372
81630.9346	1039.98375
81651.8136	1039.98376
81672.3223	1039.98376
81693.1016	1039.98484
81713.9712	1039.98373
81734.8456	1039.98375
81755.8867	1039.98378
81776.6989	1039.98375
81797.5451	1039.98373
81818.194	1039.98483
81838.7198	1039.98374
81875.8112	1039.98373
81897.312	1039.98373
81918.936	1039.98377
81939.4373	1039.98375
81960.0727	1039.98487
81980.7864	1039.98373
82001.6054	1039.98376
82022.1264	1039.98378
82042.5947	1039.98379
82063.2868	1039.98375
82084.3102	1039.98376
82104.8107	1039.98375
82125.6051	1039.98376
82146.1844	1039.98377
82167.6943	1039.98485
82189.4191	1039.98376
82211.6983	1039.98379
82232.9704	1039.98488
82253.8219	1039.98376
82274.4356	1039.98379
82294.8547	1039.98377
82318.4703	1039.98380
82339.4449	1039.98378
82360.3415	1039.98381
82381.3918	1039.98380
82402.6209	1039.98379
82425.433	1039.98379
82445.787	1039.98490
82468.6159	1039.98380
82490.4501	1039.98488
82511.3808	1039.98490
82532.0729	1039.98488
82553.8223	1039.98488
82575.3674	1039.98381
82610.4968	1039.98379
82631.9339	1039.98489
82652.9358	1039.98381
82675.4361	1039.98489
82697.5612	1039.98488
82718.4457	1039.98495
82738.9795	1039.98379
82759.6459	1039.98490
82780.3095	1039.98495
82801.3118	1039.98490
82822.3256	1039.98382
82843.4331	1039.98492
82864.0434	1039.98493
82885.0717	1039.98380
82905.5437	1039.98491
82926.0655	1039.98490
82946.9354	1039.98493
82967.6927	1039.98490
82988.1849	1039.98495
83008.9348	1039.98489
83029.5711	1039.98493
83050.5616	1039.98489
83071.5436	1039.98381
83108.2861	1039.98381
83130.0674	1039.98382
83151.9741	1039.98492
83172.9488	1039.98491
83194.5691	1039.98493
83215.4713	1039.98492
83236.5266	1039.98491
83261.9341	1039.98493
83283.0721	1039.98490
83304.1973	1039.98491
83325.1968	1039.98493
83345.6959	1039.98497
83368.0609	1039.98494
83389.3445	1039.98493
83410.4433	1039.98492
83431.0117	1039.98493
83451.9456	1039.98492
83472.9693	1039.98494
83493.4108	1039.98494
83514.4096	1039.98494
83535.3125	1039.98494
83558.8105	1039.98495
83583.4812	1039.98494
83604.357	1039.98496
83624.9324	1039.98495
83645.7282	1039.98491
83682.3314	1039.98495
83703.8009	1039.98495
83726.1948	1039.98496
83746.808	1039.98494
83768.1662	1039.98496
83788.7453	1039.98494
83810.0935	1039.98495
83830.944	1039.98497
83854.2844	1039.98598
83874.8105	1039.98494
83895.7174	1039.98495
83917.2179	1039.98494
83938.6864	1039.98497
83959.6621	1039.98494
83981.0588	1039.98494
84001.8199	1039.98496
84026.8842	1039.98498
84048.6902	1039.98492
84069.7832	1039.98496
84092.1914	1039.98497
84113.0725	1039.98499
84133.6837	1039.98497
84154.4429	1039.98495
84176.4473	1039.98495
84210.4706	1039.98496
84234.9238	1039.98496
84255.9339	1039.98494
84276.5697	1039.98498
84297.131	1039.98499
84317.8072	1039.98494
84339.0586	1039.98496
84360.1777	1039.98496
84381.2068	1039.98498
84402.2414	1039.98495
84424.4215	1039.98497
84444.9771	1039.98494
84466.448	1039.98498
84487.8692	1039.98499
84509.0711	1039.98600
84529.8988	1039.98496
84550.8076	1039.98497
84571.383	1039.98499
84593.4319	1039.98498
84614.4316	1039.98603
84635.4091	1039.98498
84657.5611	1039.98499
84678.6931	1039.98499
84700.9281	1039.98601
84722.1471	1039.98499
84743.2847	1039.98500
84764.0278	1039.98499
84784.81	1039.98500
84805.5763	1039.98497
84826.2172	1039.98497
84847.3195	1039.98497
84868.2835	1039.98497
84889.3068	1039.98495
84909.9872	1039.98603
84930.6929	1039.98499
84951.5331	1039.98498
84972.2277	1039.98602
84992.9405	1039.98599
85013.8099	1039.98497
85034.4412	1039.98602
85055.5414	1039.98498
85076.6819	1039.98499
85097.6912	1039.98604
85118.9759	1039.98498
85140.9661	1039.98499
85161.6015	1039.98603
85184.2797	1039.98498
85205.5595	1039.98498
85226.591	1039.98499
85247.3087	1039.98497
85268.0405	1039.98500
85288.8074	1039.98601
85309.7401	1039.98497
85331.0909	1039.98498
85352.1864	1039.98602
85372.9215	1039.98498
85393.5808	1039.98500
85414.3039	1039.98605
85435.2833	1039.98501
85455.9303	1039.98602
85476.6843	1039.98604
85497.476	1039.98500
85518.5684	1039.98500
85539.6837	1039.98501
85560.3408	1039.98498
85581.7848	1039.98503
85603.0912	1039.98501
85623.818	1039.98602
85645.5538	1039.98502
85669.0474	1039.98602
85692.1812	1039.98603
85712.6842	1039.98604
85734.3075	1039.98501
85758.4227	1039.98604
85779.4419	1039.98601
85801.3065	1039.98604
85822.4218	1039.98501
85843.17	1039.98500
85864.3084	1039.98500
85885.0728	1039.98502
85905.8516	1039.98501
85926.684	1039.98607
85947.3077	1039.98502
85968.058	1039.98501
85988.6838	1039.98500
86009.1919	1039.98605
86030.0675	1039.98605
86050.898	1039.98498
86071.6381	1039.98604
86100.8789	1039.98603
86139.8056	1039.98501
86160.6819	1039.98502
86181.4632	1039.98498
86202.2791	1039.98604
86225.3151	1039.98603
86246.4424	1039.98500
86267.0317	1039.98500
86287.5394	1039.98389
86308.1891	1039.98604
86328.8174	1039.98500
86350.8044	1039.98603
86373.4137	1039.98608
86394.3571	1039.98605
86415.1644	1039.98499
86435.8199	1039.98607
86458.6806	1039.98603
86479.4317	1039.98604
86500.9595	1039.98500
86522.4622	1039.98601
86543.2815	1039.98501
86563.8972	1039.98499
86585.0642	1039.98501
86610.3211	1039.98604
86631.2156	1039.98502
86651.9406	1039.98502
86675.5645	1039.98606
86697.1802	1039.98609
86718.0083	1039.98604
86738.8735	1039.98502
86759.6205	1039.98503
86780.4393	1039.98606
86801.2783	1039.98608
86822.0654	1039.98503
86842.9062	1039.98606
86863.806	1039.98500
86884.4307	1039.98602
86905.1926	1039.98604
86926.8164	1039.98606
86948.1734	1039.98501
86969.3402	1039.98502
86994.4076	1039.98502
87015.281	1039.98502
87036.4307	1039.98604
87059.4066	1039.98605
87080.4384	1039.98605
87101.6061	1039.98607
87122.8394	1039.98502
87143.5617	1039.98606
87164.595	1039.98501
87185.8054	1039.98504
87209.7139	1039.98503
87230.9068	1039.98606
87251.7825	1039.98505
87272.8972	1039.98607
87294.1846	1039.98607
87315.1708	1039.98605
87335.9741	1039.98607
87357.1167	1039.98502
87377.9105	1039.98604
87398.9258	1039.98504
87419.8004	1039.98605
87440.4299	1039.98607
87462.2213	1039.98607
87484.0506	1039.98501
87520.1927	1039.98607
87541.3167	1039.98608
87562.4639	1039.98609
87584.4312	1039.98505
87606.3389	1039.98502
87629.502	1039.98606
87652.3152	1039.98504
87673.402	1039.98604
87694.7903	1039.98605
87718.9275	1039.98608
87740.8282	1039.98607
87761.944	1039.98608
87783.4062	1039.98609
87828.179	1039.98609
87848.2905	1039.98504
87867.995	1039.98502
87887.6833	1039.98608
87907.439	1039.98503
87927.3067	1039.98504
87948.9221	1039.98608
87980.7234	1039.98607
88000.809	1039.98611
88020.6831	1039.98606
88040.7071	1039.98607
88060.8708	1039.98607
88081.9209	1039.98609
88101.6954	1039.98505
88121.5637	1039.98505
88141.3034	1039.98506
88161.1802	1039.98504
88180.966	1039.98608
88200.6814	1039.98607
88220.3053	1039.98608
88240.692	1039.98502
88260.4389	1039.98505
88280.5564	1039.98610
88300.5562	1039.98608
88321.678	1039.98608
88341.5644	1039.98503
88361.4562	1039.98609
88381.4199	1039.98608
88401.0459	1039.98607
88420.6595	1039.98506
88440.4372	1039.98609
88460.2225	1039.98609
88480.1863	1039.98608
88500.7477	1039.98609
88520.5374	1039.98504
88540.779	1039.98607
88561.9387	1039.98610
88582.3403	1039.98610
88602.6891	1039.98504
88622.3799	1039.98507
88642.119	1039.98610
88661.8027	1039.98610
88681.4377	1039.98613
88700.9799	1039.98611
88720.6464	1039.98612
88740.4954	1039.98610
88760.1864	1039.98610
88779.6181	1039.98609
